roll,pitch,yaw,ax,ay,az,lat,lon,alt,h1,h2,h3,h4,delta_h1,delta_h2,delta_h3,delta_h4
-7.527592869158251,-7.581550891998091,82.79939195638934,1.381445683721739,-2.010879587955835,6.944731553928396,48.85741555203118,2.3408532220467113,90.90822262336056,0.877159157620686,0.580779043417701,0.03862505355772061,0.12975397211357964,0.06910432105528166,0.09026560477776815,-0.0839958566365951,-0.013843660173430854
27.04285838459497,-10.025274226115805,-113.57568158446384,-0.4070754646580692,-4.05182224837942,-0.10965912561259117,48.85881101875096,2.3565700923935315,57.26348811920277,0.90717244011796,0.5269716495638984,0.10891730487064244,0.539725905977256,-0.27162350791377415,0.10563521460839746,0.11706812523764437,-0.04993401768465767
13.919636508684306,-19.430765249828397,-55.20971002684098,4.644985248639408,-3.7364077502778406,-6.090687787356284,48.85463179875379,2.344986151645188,97.32318976526325,0.37837232175544044,0.35103694960333476,0.4324964535393233,0.6153863273961498,-0.15152878570721792,0.20403938628818888,0.050935221097939534,-0.016540897649973046
5.919509051822196,6.436000206089275,58.781029268814564,-2.810215490157618,-3.1932887181907823,4.732835732201853,48.852891787316736,2.3456787472871174,92.16120576232704,0.23163072235112903,0.49321265789611024,0.9462206260319905,0.5077052711579594,-0.05366424013423962,-0.05702430327579894,-0.05576575824772674,-0.05090290746328841
-20.63888157345381,-1.4025503694822667,-6.4478359711872315,0.8785641599894065,-2.9634666563505165,-1.6264372863340864,48.85318846574356,2.3445249055669772,95.94266491166678,0.19166105085742802,0.36509663544921034,0.07488196491166443,0.5175972155660036,0.1960696606403025,0.009084415386116557,-0.0036421411596747697,-0.030058348580205653
-20.64032877982784,21.942059539440223,85.88557390856175,2.002100149902226,-2.5773819078945595,1.8925496690499433,48.856969482583644,2.3568016791044393,64.28222034558564,0.8819530956944395,0.6579313354781524,0.7213168057363228,0.16238385387176613,0.2012340758018112,-0.2285191459591625,-0.08965433401948236,-0.006284517352705428
-26.514983269908033,-28.073425171076504,166.0348444402295,3.255644893453816,-2.4453997103650558,-7.854694196521224,48.85567558033991,2.359578039908126,66.77849695732272,0.2312225225204939,0.8350296506604111,0.5073345810020262,0.5985745670400197,0.2687064779155684,0.2857086916434276,-0.1637768117011766,0.008670771444700255
21.970568746496113,8.63207565330758,-138.0431924225289,-0.9302896957199289,-0.4428365451246403,2.6316797903198452,48.85486494130977,2.3551037330186007,73.49627172721046,0.5308390468025177,0.7868944368419857,0.27584465383697476,0.9767813464526434,-0.20337373961871605,-0.07157531082267027,0.14506942967679828,-0.009128004328904782
6.066900704592527,15.776932710693664,75.44437790330193,1.8692190765748151,0.09573190826041245,-2.528990221097514,48.85202774078776,2.3564715572093835,61.21003332886242,0.3317392830786299,0.340692423371993,0.3169183777280531,0.9758194562719393,-0.06628341772025274,-0.1544591378613309,-0.07274902382135422,0.024125893209906803
12.48435466776273,15.569194151298419,-97.07610397243877,-1.9679852861571723,-1.9112079187364408,-3.3162050056301107,48.85875455687499,2.3524100092103866,73.27112945094956,0.49893543830981746,0.5094194938490518,0.02286090120078521,0.3491441548021932,-0.13043659573236568,-0.1675573725354002,0.09413490089283977,-0.03021793596635826
-28.76493034225185,23.164438025731506,-30.788378133275074,-0.645239076381797,4.0729641992072825,9.598311575556025,48.85781020447507,2.3505754981679297,50.460084278796394,0.34576701837420265,0.010656299351090137,0.7004138668626496,0.7284499726039014,0.29539442512405706,-0.2259942798452202,0.036803211256884474,0.030961312022347955
28.19459112971966,13.742024569769647,-168.16941871374968,3.9562713120339925,0.531397233389546,-1.351387144795055,48.851406386017395,2.35443156009581,93.87682855023417,0.29294871606636297,0.870278139224355,0.10041366202808677,0.4415718639945909,-0.28240763880558617,-0.1426226872110286,0.16962855349670394,0.0324676301084039
19.946558448025307,25.66860369886178,-131.0733423746284,4.499076093309544,2.8747692803340676,3.560767562314684,48.85367388454602,2.3407152575761243,58.11470200760091,0.42732300127917555,0.2453958258519422,0.03469612607288497,0.13776008271597717,-0.1994128139677281,-0.27420320686113,0.13008355208510083,0.07370948810060322
-17.25965335930343,-10.040604010746513,-64.88017594239611,2.1881734692726473,4.242378324208433,2.5545507114768213,48.85542132093639,2.3412280105120677,75.04239144542258,0.33292553671935654,0.44109149414280124,0.46831311089486727,0.7403794455055768,0.1752054487586453,0.11653812961159478,0.06375502897899388,0.05851215229165812
-19.090501967573964,0.19256500509258245,-56.88511009632542,-1.2564810922381495,-3.3686488542419477,-7.913928982296847,48.85454338622772,2.3537454697715234,96.44132463641253,0.8396913045761977,0.1525504450189482,0.4773420991873297,0.3440420724042266,0.18401517237758863,-0.010157786623228684,0.058883596614582145,-0.040041855289121804
-18.99572940879397,-29.15522020302656,143.85067792635448,3.2005778997466408,-0.7212551628436543,4.958550741286324,48.853977958387375,2.346701399291741,91.04912713058033,0.5806566103482558,0.6781085724228153,0.6547289059909204,0.7609285383843011,0.19174201852508607,0.30445790967861724,-0.14166288399744906,0.028484724012343376
-11.745465422427735,-29.582544761802527,87.05264733594544,-4.741329182745798,-0.6678959828539117,-3.5368159313284693,48.8571883189756,2.349776687128965,88.80622890261621,0.17616702753944347,0.545297656690408,0.7064377235385878,0.3793766928953911,0.1385950068243082,0.3096140338877045,-0.09301154703254415,-0.06496635383483898
1.4853858979342718,-15.592402772908807,169.9858685473348,-3.9725408946057894,-1.4552774956164582,5.978790983934701,48.85054503504238,2.355639851273198,80.27228196541247,0.23594569964635215,0.3647897559873675,0.5087884760771925,0.17501458530225378,-0.016239176775386138,0.16000263841001275,-0.17177193965540183,-0.04997645936721091
-4.0832988814730555,-23.951568171654884,35.66574372068658,1.6137373637536108,-4.910941334483601,2.1528156523076483,48.85471410339126,2.3515431581681385,71.81367429421613,0.05355349765574913,0.5351936442495531,0.7080350744305125,0.8530202962451735,0.06154540262426807,0.23099627680888063,-0.036615177970521585,-0.04284393301106389
-12.526251588117486,-14.387317923854784,-92.98305644712553,-2.087514247299426,3.159721077780951,-3.6581702009302086,48.8526218169039,2.356105237493261,72.30186855193169,0.29968863346721675,0.16873658752711418,0.25023566069137915,0.0518631832546641,0.10998326240175356,0.15566293412119567,0.08989336269554897,0.006657245491852295
6.711173683342771,-19.377402328296156,-62.044189228208566,4.513862184004777,-3.884406784460972,-2.874140793378581,48.85084618385235,2.3483831048434127,54.34828015022867,0.6695181578741386,0.7756384321463278,0.14370182229095962,0.3655717900272645,-0.06967442457419186,0.1857000317875406,0.06836234587452863,0.004824937023727916
-21.63036836087749,-28.288798509681104,-64.85906761489186,-0.6393938790769527,4.954805979217589,4.6301473933272135,48.85464887158003,2.3457484670594306,53.23929776449818,0.18295836990856362,0.2659591474462041,0.931470214048013,0.6725387574450696,0.2162221634060324,0.28243102404421566,0.06794424668841335,0.02434823697014861
-12.47132108788691,24.558248784362966,-62.462042041229424,-0.7063517961082297,2.729584919111816,1.0011863024576364,48.851713686910706,2.344696738177677,92.17192594786758,0.09920235687545287,0.6150245698915754,0.373262071462485,0.886363523567626,0.11072651438813003,-0.2480011492162389,0.0570398345587366,0.0326644704067852
-8.0182894023785,-29.50661211666651,62.26710232025363,1.7807951019093125,0.8001001760651452,3.367020813426304,48.852582242818904,2.3426336190214636,70.4326043800681,0.3210153860579491,0.899400037658225,0.09005986780657282,0.16110578695428945,0.07716777396044908,0.2912260913701265,-0.05529836160610277,0.01893896834921762
-2.635800946977845,14.164928660225122,11.090854112549835,2.675685623061897,-3.4539358225840253,-6.833633578496235,48.855070087295104,2.340735930445479,52.70080231887177,0.6125222334904881,0.03858560844582137,0.8271132262728533,0.0960548658125957,0.01911544204178863,-0.1392171670796762,-0.007299942117884352,-0.017624425184744323
17.110557683580815,-20.87112678482901,-41.247295888808054,-0.24441261874863507,0.15392971393247024,5.739533444568373,48.859737089799324,2.341062980313668,83.1527137098826,0.4727800457740591,0.38753394295273913,0.6130972712075771,0.3021377513641258,-0.17845502294929497,0.19189192914738384,0.03742176563925102,-0.0028485288337753894
-18.019573070498417,24.733777319976,-126.32768325766202,-2.8599909828827585,-2.388912591421911,-3.592173621699306,48.85684255006804,2.345419976542656,84.16512002408177,0.3321902614714983,0.13491775968063524,0.5919494221568063,0.2561902066759074,0.18069788630859268,-0.2541665853298038,0.12147920876173657,-0.06183367592440271
0.8540663048166977,23.567756375393145,-172.02990134082748,2.7330864272562163,-2.4767747545693055,2.3972253431534654,48.85279621798157,2.3455682518868914,61.372017906450395,0.8829517579338072,0.9086577103552372,0.13261278879862848,0.6942432412895556,0.007648135574650409,-0.24470835426126358,0.17107728564164418,0.027827681009301383
5.544874131722551,9.23406878215544,-101.21951606843066,-1.7964872512637244,3.2952924938248547,-7.706403495159826,48.85382406052575,2.347635690580664,70.53597948945342,0.4685576975122697,0.3600774445004242,0.757377873409461,0.2376662079033186,-0.04930509028445065,-0.08686044194374302,0.09394738885305619,0.020809710493852836
-27.212975236800137,10.334048988036308,-141.31029457127474,-3.248892307061424,-1.1935557604056535,-3.5715951768606597,48.85406133152321,2.35183234742479,78.67120342686852,0.4550466704977024,0.21334092666445093,0.20362131369924252,0.6239752827697799,0.28044861256327863,-0.09627893421351738,0.14698246254578276,-0.0588529876020932
6.452691114086299,-29.679651481818688,102.7602111068062,1.316401899250133,-0.4927619660919591,2.977345861332836,48.85153637623345,2.355185990702641,79.81408827311472,0.031656757745424646,0.6764765756864064,0.04208849472738063,0.6560065419879615,-0.06162886024513745,0.2947996522106487,-0.10547761553294842,0.016913487466024557
-19.76855257876251,29.092293966816122,-139.50073518700125,-4.095463330096496,3.4296473778011833,-4.515877354194988,48.8516065418886,2.343954100161175,75.55577463004052,0.6393428315792702,0.5431927874256411,0.16105851059471732,0.8055842827653628,0.18856254952146523,-0.2847494809330624,0.14285241582711142,-0.02020862201339515
-26.096904420883227,22.66995621454886,80.72216543046102,4.713526750860549,-4.1220937428115745,7.606243934996343,48.851483947234875,2.3551849635319795,68.20982305363846,0.45934488450123545,0.8169366817412314,0.7005716369481781,0.6034232000841674,0.25921497922704545,-0.22736861175553347,-0.08135216502111882,0.008447971294324615
26.93313223519999,23.70637354380552,-41.16287168061024,1.323972644121369,0.9461785309104958,3.224567988868408,48.85521664137737,2.342779790555827,53.441003032529466,0.1450771388053902,0.7530681587228455,0.7911696864367271,0.9209831445533077,-0.26907836031008014,-0.2399699626012565,0.038708492176627994,0.03557967222888287
27.93792198447356,9.554672223052314,-153.58377969224065,4.858955209217559,0.7821568137303778,7.4055678659359145,48.856741860867395,2.3597738724137973,51.114180761795716,0.24373918200598488,0.9746698529528341,0.24659490403753193,0.6920966369879916,-0.28179800177229225,-0.09229976645919546,0.15517809523337212,0.05350992237383784
18.503840886987668,-9.312784280727808,112.58281779537089,-1.6110657652136395,-0.747854307333248,-2.0921859549775856,48.85590720684611,2.3457006756616523,72.97673690392638,0.2023637317843371,0.09053230719922034,0.31503926396454596,0.24244311725046863,-0.18795194053836495,0.09526170050622615,-0.11188390415102555,-0.034960373935764066
-11.72317384959776,23.618918945428845,28.667005285180807,4.712051611903979,3.2977464142409296,-9.3202971475065,48.85977767185453,2.356746700294083,60.14713334809008,0.12209822092568234,0.08027276835651354,0.16273598509937948,0.9398662252228518,0.12260214847781684,-0.24679444695281672,-0.03012046389466992,0.07856643511813619
-24.13967315961697,-12.508984310928458,-95.12585536911371,-3.544377522713764,4.428900613356927,1.5227992671020552,48.851258745722575,2.343809316557783,96.924442266743,0.4355413669987871,0.9073606985127177,0.4527542976164134,0.1899802169291086,0.251070437371154,0.13445545211010312,0.09430480948369795,-0.0023382172819366425
11.053981590729414,3.7626926005321693,142.08522275976043,-4.593052276529716,-0.3466413808638924,-3.216129945492554,48.859864744063024,2.359012855608745,82.02085088656207,0.3632870549227295,0.9557322239329596,0.22005717151407267,0.18599587752060032,-0.09679136303662138,-0.05195520661570238,-0.13813083949707822,-0.07223988529995856
-3.5908503756239227,-24.016141659367058,-163.7070070066015,-4.670159395453974,-0.43852949001600283,-1.0362324815529345,48.85466673933888,2.356532535704244,79.2754058858607,0.3601230450758601,0.4066343459351318,0.9841060830692502,0.7422864360541861,0.035161675788760824,0.22706895594428883,0.15946927822611962,-0.0414824753925213
-22.67770590931327,25.31733780796501,-107.34494104880535,-0.3512962940077289,0.02063729670744774,3.6222042784549764,48.852186327877774,2.3471877852109406,70.32759261807999,0.25152816797829836,0.45586982967306255,0.7669606812665559,0.5190062233730846,0.2402325264710939,-0.263430488980953,0.11678758553627881,0.0014306217431413921
-0.28938539332379065,-21.553772533727198,90.73689401010995,-4.1699580252140525,2.231240308330616,4.013293341417434,48.85943280826006,2.348429434521897,66.47626296715536,0.4364265335203408,0.3686982859388914,0.5971140514344155,0.1600303795904947,0.001786405035785425,0.2153219881040887,-0.08992434815451299,-0.029613230883574676
-27.936688733086896,-16.506191656175563,75.37605491156009,0.12167884167601706,1.6806029069896233,-9.448871702683693,48.854686133101445,2.3400767598704593,58.99039829452454,0.5475230041977441,0.7776868750799724,0.7213270505844325,0.11393261470512284,0.28060353309416414,0.18072677427110284,-0.07534846749921689,0.024951575770290245
24.559224124726924,3.488049487692898,-75.86219025918791,-1.7249949649109952,-2.7716505079311293,5.38605345679227,48.85347346955211,2.345028644886259,53.00715424535625,0.6115017717198314,0.7707866187768365,0.16690951542765564,0.16939608915046445,-0.24149081669900654,-0.022004403077376035,0.07778851351347228,-0.045140314814499906
-14.473201103998985,15.845580012778896,-157.67104487299807,-1.643710075258844,-4.361046514006567,-0.12962170087842217,48.85213810103818,2.345785929119039,81.72488211029557,0.21982567077430215,0.22041966150785353,0.743602394848499,0.926466602177931,0.15437475109212526,-0.1676037445501189,0.15649193807136602,-0.06727654040240963
9.751337061238921,7.1610783561779385,128.90810600097979,1.356089965451698,4.492541298167893,1.133975466491,48.85267875451116,2.3490547739791983,88.96002255622697,0.7278433955652059,0.38389412986328497,0.34633476058856805,0.5864802094625006,-0.07772911020875962,-0.07267626880780471,-0.13357104051462496,0.06252410127796464
-11.297335434635343,-16.07196523199063,-67.06885029483507,-3.369019938483798,-2.389302402662957,-4.0401162962029495,48.85979219510227,2.3427809962799033,92.88813332139023,0.02702907122947895,0.21243667703670888,0.46954976795405146,0.7291606607592214,0.10027298570395393,0.1483325409227655,0.06925881442990425,-0.061275073292644935
1.2040812706686488,-29.94341744835058,-109.54317062582452,2.66553370339731,1.3859668469059176,-1.5833242799883802,48.85303973439905,2.349575337762445,86.21539157260082,0.7504402332993583,0.04662414500704448,0.8852811268357506,0.12801844364335768,-0.014698611717404731,0.2924918444878936,0.10956483607322898,0.02293022441222795
2.802616760596777,15.429034818446354,5.782256049951741,0.8203091977863473,3.284380027437223,4.207502679586634,48.8597780592376,2.353369369708385,94.84754409490994,0.28296760079874306,0.056121464063928816,0.9442105087875712,0.37929959100721955,-0.02256998742665976,-0.13499833707772416,-0.0023444133371766794,0.06081483254607632
-18.908732668468378,29.11243955466562,147.68179174168102,4.14944628847511,-1.997232494528137,5.534276058885171,48.853302149866124,2.347425645962866,99.14032557332062,0.370000862358594,0.14682312432043687,0.7685628599522053,0.5569480199212501,0.17808939261728038,-0.29316054227736293,-0.14747549963503023,0.038852128357732704
28.175077665873516,18.594787218365425,-164.32323197638487,-1.3515934623247663,1.3543341365692871,-2.2578763766404393,48.85231418465589,2.3446439055113104,98.08339839569447,0.5807113302772585,0.02988203517747212,0.7675876993115217,0.5097517782960507,-0.29704666304637195,-0.17414906533083638,0.16092848563374618,0.01048788167882774
16.50796940166687,-2.3876029106030785,95.68947169111959,4.827149920671255,-3.920997588507751,3.8223506530266036,48.85183364182902,2.3509543297390776,79.61151417212712,0.6104513937107405,0.42317520627630445,0.7445332714389974,0.37258152113558274,-0.16690933575995806,0.03199886509096135,-0.09718109755969649,0.0077614670891640244
26.36993649385135,24.226035683946392,26.09036205793521,0.7582764671402318,4.699314443756608,-4.839129966231239,48.85411854505274,2.3405800780592054,61.21000016258483,0.42115465746942093,0.0640195103706308,0.6263926721083423,0.09576917465442347,-0.2733984930381596,-0.249067330147165,-0.022208061738015535,0.06809327354757846
23.68964102565893,-5.409139612898997,-26.8383180413459,4.734019561875337,-4.418417249493741,6.640453303550306,48.852368064485354,2.3468167490155287,55.31777162371642,0.9378989473833016,0.8474113916249796,0.19554824159188688,0.6828764199698153,-0.23098623625003006,0.045513106860628025,0.025281052131290813,-0.002214833513860861
5.873998728665107,1.4960450546080537,87.86895987782162,-4.729393459528847,-0.6182532615902367,2.196284778147305,48.85696937963827,2.35055180485816,99.69624990532094,0.8583254235431846,0.7120819773968158,0.5884260008945856,0.597929343114504,-0.06565769099465234,-0.015381866415100353,-0.08232258806658178,-0.06665723422514909
25.31245410138701,-1.3722139562590066,167.69679279898764,2.2797632241238794,0.3681924206002325,5.503730321337901,48.85239771735364,2.34671685632397,65.41951157177792,0.22503655879178563,0.7836428431832885,0.05659333160649682,0.42049051453283304,-0.24790582948251902,0.012346943613952197,-0.17075154283381236,0.017218412290437593
-24.69044987688483,-3.1425676400685028,-97.48576398143123,3.166215242927363,2.9048177866336395,-0.456902953643052,48.858353968449975,2.3469086285219505,51.698552962745836,0.5889101939673085,0.6174801181894689,0.030706855219926332,0.9270169849826742,0.26164107085395966,0.04033262610355319,0.09708044898109444,0.07383049857642203
-18.241028254851287,16.511446157634346,-128.28694857403696,-4.468267133235124,-3.7887148292757877,-5.417814300360895,48.858340112584884,2.3569659332527437,69.55230482038736,0.720985007406537,0.663877331840974,0.837995639314539,0.7560423036643495,0.20196248803293812,-0.16787853387693558,0.13539936670892397,-0.09400237993534116
-27.286362665367715,1.6061344361695191,148.63742828017092,0.7896966401624574,-0.5919202614482346,-1.4153777337271212,48.85285526374048,2.358679835743903,87.40498676253353,0.21694358247661583,0.11341003377823955,0.5405334822700059,0.3648270417489211,0.2759843297249273,-0.007229096140744821,-0.14693507910415904,-0.010152836310883135
-10.480180154204138,-10.996972678487037,60.82310788462934,3.019422935894484,-2.0028843045654767,-2.370292110433585,48.857535401304865,2.356547852946973,94.5399993246611,0.018450424844707047,0.05816764853344836,0.01638776129181374,0.05279419204281266,0.09734256876903545,0.10328939996678838,-0.05381254811301094,0.005476761973183105
-6.679362618631078,-14.5105099404913,-22.325032237692255,0.6103872522307272,-1.8798928430665995,-3.345669131196818,48.858575458759795,2.34197734900157,73.87819233208248,0.9756045404654854,0.9892141121971274,0.27271884669448454,0.8003899433780584,0.0804976035819702,0.14537906118111332,0.027918233854376466,-0.024182320245720677
-13.719058093566247,-27.735160981953996,26.37344529514192,-4.361864095945334,2.7878791606525084,-5.756525045170433,48.85590132843937,2.34579484888762,64.70144575613833,0.9583484151487399,0.3729493616441344,0.6829371639321944,0.4401258462725042,0.13978951899816275,0.2674196611397406,-0.03916203128006565,-0.013426842606896201
19.72425054911576,4.991709712982761,88.42100586344787,1.9344724089831145,-4.945390549681669,5.183342837596124,48.85366332410864,2.354225887333833,88.92021007471334,0.3203476918664653,0.051270019238652265,0.9393571018744026,0.47223372929250484,-0.19455376161759308,-0.06693875999890508,-0.09184437311079298,-0.015330599561397392
-8.594800398384642,-16.202315075937946,98.29148353405822,-4.394030853266914,2.4908364133596628,-8.27296677358879,48.854409671867124,2.359487855900053,75.18841762455092,0.2391148274953937,0.15964599206415542,0.8441035673969944,0.5873525055104969,0.0912429795083209,0.1528846546485876,-0.08906273274688925,0.001297482906665818
-13.143929418757153,-21.111964679017014,151.16190509482726,3.1746889501643842,3.103984301231062,7.751218597716679,48.857862288650345,2.3448456309694015,54.30147955989966,0.15461468783098642,0.8742059969165047,0.4451242900712745,0.6604648080979809,0.12081707576048645,0.21616496904789434,-0.1545647857556903,0.064619546138766
2.561764989494911,9.229797829660662,-26.33659599757584,-4.569658166933056,4.01362243842069,-6.49950554204493,48.85293317463997,2.357964209581786,94.38748531908325,0.6871457504140642,0.20579867662713291,0.28557011558641754,0.6086400510232728,-0.03770791627413395,-0.07864538598174785,0.02848132652517409,-0.003737954000708297
-21.54454650151424,10.872555469292934,-74.3720723930178,-3.626026189896292,1.2688180323048348,9.597473037030827,48.853344623343766,2.354780299743261,82.79035233137392,0.7552916717612598,0.46704207127146935,0.3101197092070972,0.28136215691402544,0.22338941261342252,-0.11014688873401113,0.0796550771304565,-0.02435161342540959
18.13181884524238,15.129293535459958,50.27913604434309,-2.248924094767315,-1.6654467172775878,9.769360961741487,48.85160784336258,2.3596690073275903,51.8406059273424,0.4204023104998903,0.667474185998129,0.7336250245592725,0.17790174538078773,-0.1854269057909124,-0.14669130992991333,-0.043087371045320316,-0.03963242553717795
-25.526961379213752,0.2146137803154886,-30.337956259369065,1.3336479226079998,-0.727652674511293,-2.0322591751769643,48.85399052403013,2.3418717096348347,50.452836952179844,0.24280941318196858,0.9658677704059234,0.8044302473690118,0.02804330643389885,0.2611257204269205,-0.005426832054818266,0.028300128654153493,0.000463999852849924
29.21321619603104,23.643276312233198,34.05544342163205,4.763590996313059,4.697360822874293,9.75642145264526,48.850865151322495,2.347894914963861,54.38607867882894,0.4487237827480094,0.014092498822351751,0.3654698443483927,0.013066633108441361,-0.29234686755493494,-0.2411431470062205,-0.030223394332350932,0.08261433714168329
16.334686157799446,26.18056520389367,-28.80511255585793,-3.8217714738006556,3.811868264358523,7.381370345614528,48.853210344409895,2.34956230004669,91.09776958856023,0.5163593521055133,0.48758262999809787,0.6228595495758599,0.8888553825050896,-0.15234725659557688,-0.2507053273227096,0.03333497298160017,0.01970522136596761
-18.077059107949655,18.442256387549364,-124.92151679585719,-3.572923307860816,-0.36474090900557954,-8.351394461066688,48.85373479380948,2.3534416525048916,74.06538457201376,0.5434038725926919,0.9960318403367782,0.7456150479163696,0.9945386008138126,0.1973384068037008,-0.17142533213923364,0.11918802148143609,-0.04829658120518211
-29.668672972583856,8.135608920491237,-11.006369402774965,-1.3112960329901968,4.430630071109224,8.946571272572363,48.852554791324245,2.3530794407255025,66.7650597652852,0.44336745404102806,0.12172202312591629,0.8457053012403466,0.35764406390993875,0.2986537890862353,-0.06723553746362226,0.01602951299460688,0.04566043502024883
18.927685707290053,-11.776742784528679,68.73041589877181,3.362191377553202,3.2295487540645897,-9.149712281908116,48.85101358119135,2.3581269068942845,62.464670618798905,0.0037337484044096536,0.12371697025821904,0.6409202471814469,0.21302247165688948,-0.18052188592957752,0.12616675191882756,-0.06377082270696827,0.07189554262424885
12.41144063085703,28.97669529721327,107.74217076035393,-0.32769047249185856,4.010898616597947,-6.361714125217857,48.85521667242561,2.3567734624517667,75.34289920191253,0.4717777841621108,0.0870423156525294,0.8642963372303069,0.39935399530440363,-0.12416272645534139,-0.2929300134791861,-0.10717504506080831,0.03993239936875787
13.740430082459241,-13.551829968483698,-2.4025403532431255,-1.7838939974417833,1.8297723457592099,1.6919108169334862,48.85865081169755,2.3411074533783234,54.152011240913424,0.34727188921283825,0.5078440372813484,0.2815495648201305,0.10324866845805336,-0.12417656276501807,0.1296298998245369,0.006518955903914273,0.015829278431855914
16.276220801156747,-17.840584680574135,-120.51435952425567,0.6120383220886128,3.5765404346199503,-8.385256431999728,48.853356447458005,2.3497308024601975,80.85902300154576,0.5565619975449766,0.3484111974672257,0.6987788542326306,0.6297172287258591,-0.17771917323333086,0.16178512450218896,0.1265273053578975,0.04090015414187501
-25.55732089595458,-3.4707531728050327,-30.712424526204643,-2.3947680255424997,3.9176614133432572,-6.765444860212622,48.852368015714205,2.348141224604382,69.02636941222893,0.06937858514481698,0.7162540563797162,0.4020564438756342,0.22501179332738652,0.26170045029900535,0.0540478481068848,0.02776149605420169,0.01725373624701513
-8.492056287343644,-26.589565757256693,103.06581438301134,-0.9884009275247907,-4.079834154593286,9.069835742244774,48.852850382176904,2.3599428917305074,92.92200164027486,0.8791892607217802,0.5712966637556701,0.9286372306050588,0.3174235129382178,0.08118891892751055,0.2510105811307841,-0.09670599711295717,-0.06268419150884799
-23.047856428492217,28.70966788030745,-31.37066257785378,-1.6739485076795813,4.652169766606585,9.89375769775216,48.85861887181304,2.3485451638848898,87.72134270988211,0.8754410151081955,0.5808399960914576,0.21877658394647137,0.8554489176856731,0.2368042715262146,-0.2867123327837729,0.04155872828146427,0.015352744313123957
21.786205552535613,5.306013384985491,70.75108569752004,3.0414102241464587,-1.663869012359367,5.962730835605946,48.85527807589608,2.3536523828000537,50.918308778701146,0.5641154327951006,0.5110590719917193,0.7873606641291578,0.5690980156999678,-0.2188947954392155,-0.06906994422762723,-0.05873681581709937,-0.00012119376977593778
7.397887609653473,3.4171254998505134,2.596925404112312,4.242557264380007,-0.6010049041664454,0.3041878292940563,48.85130790351271,2.3456885886626777,58.32490316897145,0.7371196710590104,0.9920649043789178,0.9316572578230378,0.13481881762330927,-0.06979260700856678,-0.0234614296121735,-0.0029738181049905107,0.04843891288667894
-10.146118508841049,9.347776793983193,-93.1596749606172,2.595721921569119,2.919037591928153,8.006018713833505,48.85709221649056,2.3522925791183473,73.70172569754712,0.43790374061456105,0.5390490390608613,0.6824422465383547,0.09552328538255572,0.09795139758496776,-0.08964116280036655,0.09914645581737581,0.04577722733821356
-26.186498982838582,-0.17858113336760084,106.61418288830674,-0.6091642397001653,1.6489630557249768,-7.7620245823286265,48.85154368933234,2.3441326617723686,82.93401325799067,0.5902998442921731,0.07236302700397623,0.7890115446634992,0.6541854982032664,0.23353893288513525,0.01497373011938318,-0.106832541663735,0.004716599841886148
-11.341060697060268,-28.076188974327504,-149.68315653455267,0.04334977496663761,3.9305991243605725,8.85783738490018,48.85060244402943,2.352072133112992,85.75629747980278,0.617674180871306,0.32219463811059434,0.8861570980652042,0.16265986013732936,0.12567852234415833,0.28288149304069166,0.14388981837461665,0.052847672130509366
-10.489000678395179,6.738677330423805,8.960501791854227,-3.749263060705643,-0.9942624922322789,-2.9689414508913554,48.85255684876498,2.3573638047717593,90.81216314842607,0.3538885840913325,0.7806773907832698,0.309529145868775,0.19680312081277285,0.08584636213194859,-0.060393249775402696,-0.009157980491909327,-0.05696250204950138
13.776370700283842,12.970432617385839,-104.79922767237423,2.468647111345378,-1.2671183632384144,7.229787824663887,48.85168090179517,2.3403847558289175,52.46093073300428,0.9608721732981321,0.6284551964848426,0.124518644645076,0.6017866678291004,-0.14816711700028407,-0.12618023742420612,0.10674215830534618,0.02337777055665819
8.253448281312785,-4.995056362556809,-155.85637372510476,0.9647567939504409,-4.683111504586803,3.3674681197078193,48.85604997474375,2.3500917281907867,50.924160000661324,0.6026036962161995,0.6839477440463385,0.9365007040653506,0.9105763368994608,-0.07777478370990841,0.062649421846513,0.15467720476601088,-0.04639689709408717
23.23276455457959,15.437734324271574,1.056217349969586,4.024399961374364,-0.3727462333034195,9.20548608111444,48.8548456640734,2.359647412487128,80.02528666528657,0.9905315162192099,0.9218062294417602,0.03750416000424972,0.5414217816696183,-0.2274711880582779,-0.15085266042965065,-0.005763829700996966,0.053077363593311375
-1.667104490283041,-16.379922039694762,-0.1576238634275171,-2.993888564248468,2.240707703291087,7.293558955916364,48.85724064550493,2.343185250448966,86.19134735972273,0.432370768138033,0.44378028779479306,0.4846094758286297,0.46831668627222356,0.026637179148005362,0.17370618661961046,0.0028709520348686986,-0.01377191124141154
-22.8243452437019,-16.72340453602896,74.4843246032595,2.5972612193261213,-1.9882128237378396,7.757956271018124,48.8551157105026,2.3436682465609775,89.33480612205709,0.03232076758751168,0.01952205041467381,0.32246440353032413,0.8586755991731356,0.23278874071443786,0.18743097446369889,-0.06299210227072087,-0.006574883358075166
12.794687233379697,-20.31498073874556,88.11024949868573,1.8467166171918965,-0.3727348632615861,2.635087122400609,48.85419005935209,2.3494164744220307,57.78577922860168,0.30243698303948097,0.9900900035103727,0.5545935911496085,0.293510239727927,-0.11592618946398359,0.19511069073441642,-0.08941797463011904,-0.00018241181989391182
15.647102917013846,-7.68031441265029,82.00493592944287,-2.3415446619024785,-2.80602231514722,6.663170619525516,48.855262186904376,2.357419863606538,98.43680085842813,0.650787732205722,0.4545777647676891,0.9893183217942563,0.03458039539743796,-0.14843033626176136,0.0694694393500994,-0.08057231162815064,-0.049428936056509325
3.676631854169777,20.820722123345014,-32.55885614996819,1.6737863954082508,2.727878058714607,5.142623015226771,48.854344861130876,2.3512551921887423,61.47145440973174,0.9103434978525974,0.09761162500409337,0.04572848981797484,0.557687698443265,-0.05306117954463893,-0.19575897141783402,0.03264566001710656,0.07160117652655841
16.258030797273662,19.67472372894386,47.40832340156251,4.243733805766496,-4.394884386588529,-6.767537381922255,48.850370868939144,2.3501741728914114,62.516518997541525,0.6151642441988125,0.5485841036589998,0.7696157836762536,0.1318955247922644,-0.1609844124724179,-0.1942647256195583,-0.04349163648773769,-8.749602158180173e-05
-0.3722642181365572,-7.030547522189771,27.700287351825693,4.184359876671188,2.0538305500049825,2.9719378270648615,48.856806991129965,2.341735141182092,57.714451973369414,0.47176366539445536,0.5902031756509977,0.02456583625430675,0.06058204457191363,-0.002092564981691759,0.07303309699932722,-0.027573314668913128,0.07012440884112942
1.3639697629196448,5.3471241588141964,-28.23776779790896,2.196265745161413,-1.2105998825501652,-7.036489069596827,48.859621303262145,2.3592397202914936,52.1623721528061,0.08074303899653612,0.5643334168129839,0.26123978712227325,0.09704016315308273,0.004157791669816634,-0.04687404991104862,0.029830616069794105,-0.001744279854649606
-4.347538898487024,13.24897898849494,34.996569906957546,-4.519268874659399,-4.584039306128792,7.389122437710597,48.85422033557036,2.3469423186295937,90.48620624019402,0.1447563915770822,0.9649179310250608,0.7055518289899291,0.11033312516909044,0.03723666951155173,-0.13009681221964375,-0.029414360865158258,-0.07739799331620847
-28.47485239535429,-15.527593522318622,161.00923561425452,3.722643373201615,3.534695872917858,-8.681004013200631,48.85423732983768,2.345036143042951,50.282176845932376,0.05346937965202181,0.3196354327276857,0.2748279574800975,0.6556601143990363,0.2927917124897322,0.13940345478160215,-0.15509819776846512,0.08021359100210432
-23.526514380401732,-19.911534846315178,-110.55825227470416,1.5777860700453994,-0.12278136818834806,9.740933403865505,48.85045768878637,2.348234878894861,73.1889930971165,0.7111823954476042,0.03451312659452188,0.610740327371781,0.5823894967699128,0.22058459752849918,0.20170136757203042,0.11979508423092036,0.0037887839778703355
-28.114248858795946,28.325759592738663,146.0779544827895,-1.8956574681726557,0.9931896961612905,-1.98746667724577,48.85890379084687,2.348283643234116,54.59835919228422,0.8310913992698632,0.9197522379008706,0.9668057072055184,0.32021646886232524,0.2795894001405853,-0.29419380409285084,-0.14746016053828173,-0.010592651839104603
8.184624675826825,7.053438792577111,-160.75601496604858,-3.127496382943007,2.3203069152445686,-6.587412925971288,48.85929121387463,2.349170662174561,52.23976735727773,0.16443895141832854,0.19123856898485447,0.8747334837419818,0.2430783366771564,-0.08068227427445288,-0.06511221276625423,0.1579270504285748,-0.0061173447036561015
-11.1386411354204,28.884943310019835,-68.97988335540217,-3.8379613700268287,1.550744330011887,8.713499673224458,48.858131391180144,2.3537707640375833,96.73284643010845,0.3252323451535064,0.7494493803235732,0.8363292581573283,0.0006893279903724681,0.09583424855213753,-0.28416663606301457,0.059346046810257666,-0.04152653159967278
0.5142414698821653,-9.734640772066253,-76.26771049984984,-4.49763100742239,2.308568708146116,-9.091480275403041,48.85106345471542,2.357358931372289,91.26999143114423,0.4791076568779701,0.20400968319872892,0.19354159726064368,0.15888960808109565,-0.008293452907575612,0.10058044052664447,0.07502277500976759,-0.022238851069713274
24.453988435565584,12.181901998447891,45.491438837126054,2.5410324795075647,2.622816845778577,-0.5978873098203312,48.85900223681154,2.341146257602537,69.74381296717614,0.1427865390217785,0.8289754485140278,0.271782480142876,0.5755135204364692,-0.2397790116522187,-0.12303227297558947,-0.04857042226170417,0.04316875819436613
-15.042466251067504,-16.643781807525738,-132.75901736017548,-2.641570010567247,0.8915153056461094,5.4045425584900535,48.85023955663395,2.349815371293334,72.92968645668259,0.4161913005440768,0.906382540190896,0.7875828368946634,0.5564524079255713,0.16055395679695497,0.18740853018284398,0.1337696548174054,-0.014666509683859024
-5.377024617862215,-14.327989723565224,137.64514026231137,-4.757470639567449,-1.3436216909224328,-3.6649904913659803,48.85444574323236,2.348279562496521,93.40562795153491,0.9668321081521039,0.10535670454362778,0.7304950458084514,0.7364244404776703,0.06278339502793033,0.16574728515056938,-0.13851950708812966,-0.060746838371425055
15.333068312582924,0.7141272761774395,118.27850704741485,-1.0272934815801071,-2.5685785028365737,0.5766933980560225,48.855006236541016,2.3402176022563763,89.84184600019199,0.7191481778436764,0.14727454556601083,0.2913303231061829,0.032982139474937555,-0.1520145727898719,-0.0250321691106489,-0.12891131537965117,-0.022960376092268794
-16.272110070502652,-10.822912469515728,54.7436950867,-0.173929194076611,4.029032366527872,4.008260326276039,48.858340021010264,2.35632978901805,84.58075020644884,0.1669317906497234,0.9252887543778144,0.4289150870806374,0.7951113083985956,0.16720885939098704,0.1034914939901281,-0.0625091808387175,0.03106530524680312
-25.381205410272422,-19.942706169564932,-14.971020554808803,-3.3076976909987312,4.699248446382203,9.039528420026418,48.857508592134536,2.3420862640224143,76.82826899811626,0.09881456758066609,0.7707044041483069,0.648535571839544,0.5817799579212133,0.2427347887203786,0.21663885966076404,0.011135503643649743,0.0135525507971664
-12.614912825173917,-14.22715788064044,155.86417517114825,-4.559516638374502,-1.4233724490179114,-7.945947214579401,48.857970968965,2.34229496019014,80.39112186697821,0.4451508864335292,0.03889687225204197,0.5255292606788188,0.2728945644264862,0.10915700109036831,0.15239530292910208,-0.15712657077805348,-0.05572258515059029
-20.326722764759737,-27.85509633204812,119.06875969940012,-3.1087451690193113,-3.876892709276998,-6.855465925701605,48.858679009495575,2.3409659683610338,69.66791766472794,0.987951127470568,0.18219949317102224,0.45610823744122375,0.43558347298075073,0.20322667815289674,0.2758840504306221,-0.10759109211808558,-0.06512059545108204
25.78185914055438,12.265417288649196,-0.24654669075184188,1.791027618365744,-2.7746267288356874,0.17741790388133793,48.854760709204925,2.3440084326762896,76.40485122013348,0.7932825724336855,0.4120762163067546,0.10011220204834081,0.7993745178217558,-0.2711597185471053,-0.1105096978866416,0.0003386743488808961,-0.015030371792323829
18.487222773865014,-0.47300057484830305,72.67440760355203,-4.177563227487936,1.7066734598718956,-1.630500776999062,48.85780252353517,2.34353632563109,76.98488978138914,0.29312341212811266,0.8641983554441721,0.4349600370976857,0.4857055407785523,-0.20719743241043886,-0.0030309117802281857,-0.0723302732485307,-0.01828273014829223
8.004225390625407,-24.34541601572846,24.09478278468643,0.5503703055699383,-3.2706663004166927,-1.784076786326672,48.85068033094406,2.34695731672177,93.24198071313467,0.026280708483499837,0.15105756794245262,0.9921635030827617,0.7080585923831756,-0.08298228839791531,0.2363911635513263,-0.026268391715715936,-0.014537785717218513
22.28763541126306,-19.698360412290526,31.659205819775224,-3.5358801209183333,2.801222730609881,-4.060769941276936,48.8544454642275,2.3531854078850203,60.93270293668148,0.41128892062260913,0.7241401443642597,0.34193695660893675,0.40744307813087244,-0.226039368716469,0.1971247088181066,-0.03526825172045867,-0.005217150129137768
18.220324613946865,-23.84792771324136,-60.84861500251034,-3.0431082641958063,4.230302398747135,1.2136959701791223,48.8503013267487,2.3410858845525695,62.331081615727015,0.1605373087369537,0.08371433638024328,0.6939967960451566,0.5463593596017859,-0.19029454718418992,0.24345422246424234,0.0640343524366596,0.01904155590071445
-18.805796466837847,6.755568496552591,-13.649542335037154,-1.069221167333013,4.6365151507884725,7.665766723314324,48.859153150653185,2.3572055152034954,60.5468784545757,0.18028086124385245,0.4671689714625785,0.5058045023064158,0.8328288735291569,0.191772526880604,-0.06307934730499726,0.019577464083514837,0.03164083077125661
23.553539909398665,-24.34737818325037,-151.87628491569208,-3.9917466394626864,-4.906744940251093,-6.781513189242723,48.85958413781953,2.346531572307131,78.95838870680564,0.16229815984037177,0.7289940621682485,0.794722679529275,0.49665356030691554,-0.2303002868813042,0.24620555009459388,0.16211428911542328,-0.09884857611089239
2.36053451493904,15.256939982112968,-51.35447100074671,-3.2679649721778716,4.581541649544166,-5.694273410084847,48.850839390602886,2.352132146621438,84.75788576731514,0.7196076595254373,0.06471342837479155,0.7482749805295974,0.5631207378014094,-0.01937819844492519,-0.1509753194537396,0.05421424242901279,0.032643976307106325
18.44640930984375,-28.76934484077653,70.49826553037471,-1.5104758854864588,2.4019441912961774,3.4164699559917153,48.85532626644408,2.340240102244215,61.92512654419906,0.03584141220934978,0.20423871746406852,0.9444046766143231,0.4221651041571922,-0.18689774519690217,0.28598004159386964,-0.07245860690682089,0.021760193644664798
23.765477995409597,-15.037452720246474,163.15777098222708,-1.7033099450163314,-4.159497677361977,-8.876046914253916,48.85325139606337,2.3473161583013673,83.8480765646285,0.5647328670121042,0.7918090787677705,0.6507381832975445,0.19066534311831573,-0.2419699629807732,0.14644491930764153,-0.16155944545455422,-0.0632451394659826
-10.919791501688167,23.44000055351443,166.70308059468732,2.4927148567573187,-0.8475953122127358,3.475283991260129,48.85342534284663,2.3400410182381073,81.404556261484,0.7525208837936496,0.16351855479529598,0.9477666132593328,0.9734609114204922,0.09693735171139965,-0.23436899222491459,-0.16234957480065593,0.016365035846860502
-23.396884528339395,13.111879087334763,20.06023288496101,-4.252176948735756,2.000454745795091,-3.7108769827332537,48.85450700061376,2.343309165471544,66.05390852817585,0.15640912761699177,0.6675357253313597,0.041550368636795065,0.020571460007193565,0.2330497558001957,-0.12779297962731848,-0.01637124519083956,-0.030890422547098062
-16.323890247483497,-25.62190002445874,38.38401065144956,3.6045073566634347,4.5668549266104925,-2.842921371999701,48.85125065965255,2.348957008609426,61.49094215934919,0.8929310116617523,0.6421866871377973,0.4068113265807545,0.12420506060153635,0.17052578641791302,0.24823632292274636,-0.037362184710300464,0.09303753203841918
-4.373532682424621,19.267566269110787,-113.1403732196517,3.1623217073945487,-3.358586063886074,-1.8890125235419948,48.85180770198784,2.3507017484389947,94.09029766654123,0.07813442990695385,0.5203937446228715,0.6752475961880797,0.7127163200122792,0.0422930664440575,-0.20632098177134334,0.11474780751837498,-0.00042912036230942623
19.080885955349586,-0.41789270758771124,70.31091891367106,2.6599163969193835,-3.7226671807304603,-3.008248770165702,48.85577368660128,2.3430585719944266,78.48344348205057,0.6827060068527708,0.2017105401579825,0.48029707302616953,0.7406878238056147,-0.18969950564948224,0.005076073070591552,-0.06802670841768782,-0.0016851524979082412
21.643834995380608,20.806981630129755,-154.56283463722096,-1.906276375368675,-0.27652946738121464,6.824192425590645,48.85018755909438,2.354904325552313,85.19496059657767,0.17196446096975615,0.416940167439632,0.9321753250755725,0.15641539772314506,-0.21410160781652668,-0.20628370956351227,0.15096857845907255,-0.009940796206497841
-29.582872168128556,6.044386467023607,-77.51315311219997,3.2288178554078755,4.6809889373848925,8.921369148006182,48.85599801022014,2.343780073310412,96.26694100858137,0.8060317895996183,0.6217681141115236,0.14050466958155328,0.6338187695224603,0.294497829711163,-0.0639143645377667,0.06729852455626543,0.07758747772593692
0.644838154653943,10.909981921971522,60.610805022759195,-3.1719791971071922,4.713792152580105,0.9602295063237687,48.853189171877865,2.342316901843141,60.26987750628759,0.5713978027462022,0.8817242737249168,0.48021236658263167,0.8848890796044936,-0.01326966515792447,-0.11444450581748222,-0.06029251477079439,0.0013219448925039737
-4.955339811073259,29.610093623742486,-68.28835264434386,-3.755907941449718,-2.7208525894709066,1.6375699766987868,48.85832206414804,2.3466684902552233,67.52771348956378,0.5892058419093156,0.7978551459498848,0.8561765249802864,0.8003661736588048,0.0493082038568907,-0.294398314276287,0.07238999111043944,-0.06664554126389466
-16.673531371756184,-16.05986724455891,-162.05512531879646,-4.550436665105126,-1.8065285202854264,-8.590337839731298,48.85600006507729,2.351028573273219,71.72250276260736,0.3460225175455828,0.6073446546727854,0.7574491530767578,0.004478085665728271,0.16943536363441397,0.1601186886390713,0.15484831485792241,-0.05868662321912161
-22.80807795997903,7.436734485683303,119.47334736634696,4.393103630055759,4.080319856446545,4.263838567220013,48.85708091200712,2.359778036328395,61.6447255358145,0.28326273262735713,0.2284709558036293,0.7912100111700384,0.040366245098638065,0.23360447371912363,-0.0750270374384319,-0.12282307119982107,0.07461638584202455
-9.743089715782322,-2.3807165965560984,-68.2811974315573,-1.9198910229472634,2.348414908520642,1.681977459281681,48.85114425181238,2.3483743145927027,92.02102698759825,0.4633210695654013,0.2166993632051556,0.4624215887709541,0.4664526053372645,0.11867782933639459,0.043466784061530525,0.05682491655820273,0.0008374990146585047
26.574582234751148,-27.632882824638514,-157.28211905087576,4.176178801779059,4.723164286576182,-8.992109523847994,48.85265862364682,2.348519928344842,54.17015545464303,0.7577137723162134,0.8138872630116835,0.3384283175602898,0.3521077833961035,-0.2646857654683843,0.2580328215372858,0.15408510191294725,0.07533936794527199
-10.607824078754685,-29.1317615098281,-153.07626077896853,-2.273864384806703,3.931483630155544,-6.031486658565934,48.85996669608972,2.3411866694023304,61.957971591933244,0.1682198075642185,0.6644221013778958,0.5063410213493768,0.09326799507251138,0.11052735556778268,0.2785193253063671,0.14584797614127679,0.019569528575113647
1.1274373046019655,-22.84628533092848,-89.3668324360487,4.075659593363495,-2.8490394968625665,-5.961131592148745,48.85433652246909,2.3553163934631858,59.5517068199364,0.8162694693772801,0.358060520200023,0.20107995085380204,0.19278567257678125,-0.01830611555295276,0.22678847115137507,0.07643417949353072,0.018233430800744382
12.181137533710668,8.945504432312887,-115.91425900025055,4.039290528460883,2.5972685941268336,-6.580640961132815,48.85358865205324,2.343635660037221,97.6695864340942,0.4798378987218055,0.9714812477204487,0.6413511072407632,0.9429914694150979,-0.12082310062073522,-0.08236578681573895,0.11118327540672249,0.06950755317653705
-8.182223857242363,4.02978527480353,98.74804240085433,4.236760450107129,-4.5143476843988335,3.172919092455542,48.858738553589774,2.3548960712909075,81.36770810431155,0.45221396662357904,0.889760777472014,0.7864502833965447,0.3679096393459572,0.07162397377401976,-0.04727400752267385,-0.10124509422557608,-0.0018106508846937753
28.306924963257643,3.2057736698236425,-64.19374319986761,-0.03846560715806291,3.178327787414739,8.568792307115377,48.85033074608863,2.358212337554599,85.81076050308374,0.01659831501641229,0.6715116985589643,0.07180485650495305,0.22129567628817481,-0.29699610280510186,-0.043925193125443004,0.062113232384761866,0.03668341329824251
27.746837696526676,-28.088594248304396,109.69048261433971,3.6594628679889194,1.0155676244460814,5.2595065071671865,48.85534773361676,2.355364415241827,55.42105503044727,0.12419525547079457,0.36922971394126514,0.5990818620279422,0.1619681456006038,-0.28809472442248485,0.2791280704567522,-0.11212792202383881,0.052677066972227474
-14.89306225047815,-1.841820218399576,-117.41544078366499,4.507658961673203,4.561009626364617,-0.4525302957217363,48.85210257213786,2.3528490684082444,59.7005278505992,0.43197266859867645,0.30875658452875077,0.5754402036081127,0.5902605966358335,0.14904019505795132,0.016617567956575267,0.1168096294305518,0.08459770622909871
-0.16508964645687385,25.47736907055171,-2.5634953641298353,-1.7538305810282049,4.6003245546907845,-1.9189740403103617,48.85368152791454,2.3520783259097726,90.49442357023096,0.9812984446188485,0.9393838112129301,0.2640634534135825,0.4644782496388714,-0.01533085237752386,-0.27194025499217006,0.011011043695695177,0.03054201981305884
-11.94730141099382,-6.1444878413612045,67.69336807912637,-0.8112559431744497,-4.491848909756447,-2.27083789381555,48.851997770718704,2.3490726578482906,78.38654292986595,0.2501497017789641,0.44346615551571456,0.9953610552416509,0.3411365984031568,0.12205721571122256,0.06566372743363379,-0.07070218800481434,-0.05735481302938329
-12.909570337351944,7.495348187307378,54.71670739170776,2.19240187335744,-3.394785144442322,2.0249391539165007,48.85037822759549,2.342890853902327,52.25607623363949,0.010255458087025882,0.8000171549321345,0.4997885649144853,0.368133188476095,0.12967074433961348,-0.07648810874442119,-0.047324116607185523,-0.02617565809577057
-27.78678315872803,16.789120537388612,36.40658757489675,-1.9964017827669913,-0.15792952681308403,-2.8155868211092727,48.85416512133968,2.355576772182435,78.28348830591939,0.43584501158609,0.9397220792583371,0.8880008293222703,0.20216682475010028,0.26481311433350685,-0.1627978248581661,-0.028059679158832736,-0.012037800236352508
6.573860038793811,17.035516748513253,152.93577669522114,2.5380930891265896,3.794935249461492,-5.477560576225658,48.85789203021195,2.3495464454078516,73.76927184169662,0.015953988070900427,0.4920066964744272,0.19036506899478067,0.7464032109141019,-0.06909870528643669,-0.1658681765205768,-0.15499379313244555,0.06016661745747148
0.1607413937316906,1.1568049437162813,-97.73094682557203,-4.261078547864661,3.1444514229605645,2.0568581315116585,48.85951954432627,2.3525129164627128,57.68468493894617,0.3362215182416136,0.6531084054756432,0.7488479628646528,0.7486729620014938,-0.004833596646255578,-0.03404229629607515,0.09129625221040827,-0.007892466562140377
-26.91127492500064,21.47711672414018,-2.261086393642074,0.2349838428854225,4.643700263517786,-2.185891731448537,48.8562385297461,2.347480304578269,79.64704161444894,0.3540556902909937,0.08625533423692722,0.07929246859469608,0.032470094248766124,0.27664107894087925,-0.21513022663949583,0.004148420124521103,0.06071938404757504
-13.281212145803313,-6.517314398175181,138.23731802606716,-3.776865159162548,1.180841171113408,-9.717503417123323,48.85388837092353,2.3440144543936086,58.69088157077217,0.0023531158648324446,0.6525814142610101,0.06812072550659531,0.2152459357574008,0.12472741742201675,0.06407481560801409,-0.1302634115089833,-0.026578471252102193
24.495953157999224,23.321592887087903,-151.95824438574346,-2.0667652356332358,-2.4343648043837938,-9.55537772866451,48.85769855273547,2.3561301692757652,90.57250531014995,0.7795679570261166,0.2150835294600133,0.1921357833812506,0.061464080106589436,-0.23199081217988168,-0.2378592144542791,0.13906736938669853,-0.042171597384565704
-15.626286559981654,-15.586370016267281,-159.88022342889292,-2.41374607513528,-4.748933604948227,-4.517267776911633,48.85505223983429,2.346847996111476,80.92446645206816,0.9128515665526106,0.6705252594579222,0.7372794954641793,0.08772115687500404,0.1531282961961524,0.1586575534219442,0.1585555839980801,-0.07261203326021465
-21.306307674526614,-13.187015580565738,-96.01117647901509,3.3893207356266615,-2.770735092794511,0.24844399013727525,48.85367620279891,2.357333600579428,93.56558599804339,0.9987604540059705,0.10104554617113526,0.9969738596402675,0.9573657259276798,0.20944554556679484,0.12849848368347536,0.09669800600540557,-0.01803291135698115
-0.6328343833462178,-26.812762548059933,47.88763903368667,-3.0648274459380254,1.7527319795362466,-2.9152098466402254,48.85179089692553,2.3593144980504537,71.23331315271423,0.5087815959149403,0.495208192020265,0.8109729574577783,0.45505109366798824,-0.013870067419959185,0.2610714409420681,-0.039286972607710746,-0.010589000581638381
29.13902724663604,17.734910192536972,-86.44333447806952,3.08447920159119,4.2627482334301305,-9.51889695224896,48.85796129984337,2.3565997705441406,75.59604446906738,0.30661911429315614,0.5210168984631213,0.4246917302333606,0.19942738817897498,-0.3237592704645512,-0.17979919849017426,0.0773606257942134,0.06501858855824835
-15.476683709309976,-4.9766858260376665,-111.51364182883238,2.93960345907922,-1.790963326917352,-5.536964724935192,48.85500425790517,2.342562760905817,88.02922291823208,0.7174747362945131,0.48351939127348553,0.6435857555031066,0.9654998783261307,0.15038326726631562,0.04151369073917099,0.11343771615292784,0.009844326747359406
10.328132844352716,-16.25300316531606,-14.831166471014853,-0.011169444427700626,3.7570433028929546,-8.071613826507678,48.85963803741311,2.357100218547149,77.31380953511922,0.7364628490973799,0.7567241525700655,0.47460988516143054,0.4760867694901447,-0.11995275629264215,0.16349143927306534,0.01843772465262057,0.025091583890723496
15.697176919723056,-16.09258334300522,40.89530475698814,-2.661567444038704,-1.051017516588435,8.97264002722833,48.85801909600349,2.3503871565082646,78.5992093382569,0.3791883251142457,0.7545206009562039,0.24741001454659783,0.685213790357509,-0.16829285105105507,0.15533834733981705,-0.04517823483582019,-0.0456384619085752
-15.74174736045602,24.08399647375399,-90.51922547397345,-2.731036600437773,-1.917287506314497,-3.7433184874294696,48.85420016119142,2.344828232017953,77.66694937013271,0.5655852862279352,0.7063778500087716,0.6158741386481134,0.9573710348098825,0.15444280942476515,-0.24392851505419905,0.09177702317810116,-0.05843791446268611
13.692980916711576,20.03499602766221,-71.75117277945286,-0.3507535288415218,0.08844242805818059,-9.704672568090082,48.857408500408674,2.3418631206725227,74.56577493695403,0.8217705419685777,0.6316305095509239,0.5296149125490974,0.9297869713670638,-0.1257975914019264,-0.21523976783223492,0.07333761899157604,-0.010251827895385746
-7.933012036844808,3.211853121430998,40.881349732145,-4.911909926064837,-0.5772650759038473,3.211265039713272,48.854533914928524,2.345570196782598,90.28484955653252,0.1891744610463898,0.9043921472155623,0.5377730481357956,0.9644618282178847,0.0766787654094653,-0.04346370563596593,-0.03483406704061495,-0.0570038399169809
7.9383498356147655,6.966648024943268,160.46583191620294,0.3135075461136614,4.1379986851701815,-5.351041189843658,48.850798657284145,2.342748541643524,74.26058208719155,0.020472905939693753,0.5756388452699208,0.06340103523980689,0.8394391163036983,-0.08257383008433491,-0.06603330283263247,-0.1538640653830736,0.04634651360117815
8.011782645653682,-1.540465766982539,62.90702187771177,4.5277952576705545,-0.3174305259187351,1.3347251006200818,48.855166810515584,2.3405128916440283,95.0397272959639,0.5396965101394486,0.3483215455468148,0.12105371865367909,0.7008269339640822,-0.085969019807724,0.028010120088224698,-0.06124217444654899,0.04618444279946097
2.146481044485512,-6.50000742727147,101.84549169044158,-3.452931181374035,-2.226646127769245,-6.9850909078102426,48.85865728619534,2.359755286982282,90.43083230145216,0.6643922310823066,0.059188814003865886,0.4996945801695254,0.2092458646519676,-0.018936491001404095,0.06501504380738328,-0.10086592158161878,-0.0541048717299899
-24.5826137967355,24.928612873099887,-47.94836588803125,0.7334562147560337,3.4256557750190364,9.680264702449293,48.85855441318517,2.3566308449680604,84.62200282195587,0.5749729990814505,0.535814949215309,0.35871651315029096,0.18277853753849482,0.26971192250066106,-0.23257441157050468,0.0415557914131859,0.05181756371429335
20.11814973535428,-22.463237788781875,-81.98843062159222,4.617786886444568,4.987495116595667,9.40518373130666,48.8557496691364,2.354778985261937,94.93292532801694,0.596244297082845,0.227742177711455,0.4250001457326412,0.35261079722826527,-0.19612863408965944,0.23027665385092447,0.0823382501799029,0.08253683107099433
-10.753196101695849,-4.8931926170263225,-16.46361244705588,3.6052213949160024,1.4817141918132393,3.1196670338061168,48.85380023536415,2.3438602754238653,76.85466554605946,0.39309286574618196,0.38696253903844413,0.39004178647357834,0.9004179209865948,0.09562619300515664,0.04642202903912283,0.01675093344458284,0.05295805486045845
-18.808889376008747,-9.326285520727481,110.56781833620255,3.503801163813403,-2.495386310636414,4.144052436441214,48.8501010060231,2.3405547287790167,91.09204668619151,0.6514947275304827,0.04994601053990144,0.7114233085012501,0.2470914039020028,0.1906306878439564,0.10853119066821543,-0.11488703553542243,-0.009732248891182809
-27.553491506714167,-0.11095678493109773,-15.7321289553999,3.21849930396189,-2.6118492298682074,-1.4824221741669739,48.853114097789394,2.3497040776514937,62.09115199820485,0.04281116378954286,0.6408766799844925,0.17856050504477072,0.2101118305068581,0.2674530710721181,-0.006896476035150599,0.020019548945667924,-0.0004123472534035442
5.453576591294507,-2.542087527289496,124.82114716434995,-1.909763939438144,-4.422933037847402,9.243586908363376,48.859898085773075,2.3548338885987263,53.64878194426886,0.15118464222723826,0.8866892757900913,0.9421401919373653,0.5759864738016715,-0.045699766100818946,0.029051459630187064,-0.12308897231780949,-0.0796366256195562
10.653861710536944,1.133371899064887,175.95791305024574,3.9061683126681217,-4.227069614859151,-1.5252075925759812,48.85726491033293,2.359256747267195,84.2500317029708,0.4448083550387757,0.3251409869269609,0.47040803872932724,0.23149453402883235,-0.10758087063569732,-0.009310340145022473,-0.17456126027030605,0.007435154113400811
-29.004730264328632,-21.604861366380355,-154.07040033707892,4.41340351233171,4.149830951827624,-5.210640051838795,48.85717588563825,2.356877673772063,65.08051500715762,0.9429880944730392,0.8048762941033701,0.34038464434235827,0.57939530104755,0.29402122315285195,0.19208787584448722,0.15678540606332977,0.10243237251881238
0.7255834979568583,0.7884900907966248,-163.65234380986666,-0.04207576700960658,-4.035128929504495,-7.69242780792192,48.857610833903315,2.3578700471198912,81.73023328932977,0.6444919522528707,0.1263048410826929,0.021176168089952596,0.6514528981624671,0.0021885281703703406,-0.010656709104317454,0.15922327385773674,-0.04126117654180552
-16.410253488123722,-15.454871166767347,-126.14770695118975,-1.4542895274054124,-0.15656151723221257,-5.837493993712288,48.85620113383342,2.3447732549548204,53.869717271966486,0.35527850779152315,0.7231380833827074,0.35512459216389103,0.3540237741807887,0.18397481916349898,0.17192556875104986,0.11880069511911757,-0.022532938492515468
8.71036742456699,-18.940119060708525,-41.62691673563535,-0.8577098439414392,1.981217796931782,1.4442700785744407,48.85585858657175,2.343106520352467,97.78238746996003,0.4579592211370873,0.07976023358783046,0.6257550546026992,0.4543360613182287,-0.09379769475705318,0.18455585927853335,0.044539082278501195,0.00796778484711493
-19.538014259700514,-26.109946872828527,-132.82480470764432,-1.6579355816873442,3.503547827736032,-5.098165641214019,48.854536192553624,2.3449556354018672,75.75573388637193,0.845634424725747,0.2586310102069296,0.7972628451006373,0.4673234860403057,0.17460645241775646,0.2559313582847386,0.1254326097035709,0.010291046124606802
11.456264286147956,15.759153525368454,133.43921194275214,-2.8758155797545992,-3.287290497462727,3.0849885689508945,48.8544393399367,2.3427715894651673,50.476312742650606,0.5424696710162309,0.36024125629092707,0.7320054802837,0.12047184335444971,-0.13143924942268825,-0.15220557151953049,-0.12315859444428605,-0.05735734795222352
-6.7958792219677555,-4.353484748606402,-171.66734963025704,1.184484702528894,-0.622213208746432,-2.356309602299067,48.85870848455437,2.3559696764742357,73.80384410816897,0.047866856273752756,0.1567884022200008,0.5732198862756517,0.11247334435439871,0.06397744720123269,0.021148578941884558,0.171091626366222,-0.011158941297466834
26.20379932420407,7.598620998705499,-66.3146221191039,0.6259688624532291,-2.485198049862225,7.737458108344885,48.85393456261697,2.3580608612193164,89.48604183335121,0.416865777846651,0.1844973240547978,0.43608603021089565,0.14850926878327952,-0.2569994786854395,-0.06817819753014587,0.06527133839951181,-0.0092066788908802
-21.748743351240407,13.6556005982846,-113.50993338208607,-0.37414928960724403,-2.4417691003339836,1.1695613493115466,48.85840291784068,2.3461468405252344,93.2609538651925,0.38802982197504143,0.6989256603131765,0.5254487651840287,0.7570423608991264,0.2157001297266511,-0.14054414769002535,0.11803460996752142,-0.04435456458433721
-9.53601893698449,10.75899991881321,155.35415885671165,-4.041546133151682,-1.9616069251332413,2.4520810620255222,48.85837734425625,2.3575385236587816,73.06307132362289,0.8998897832194946,0.09576780501421966,0.9617930054204299,0.7678733620149772,0.09510487918589565,-0.11811408737448444,-0.153714042672618,-0.08618500435984103
-23.191588725564657,-1.769956854619064,61.01316176041004,2.9689296470599977,0.8711621441846731,1.13119605985354,48.85770898199341,2.3411007036031783,56.29682506182095,0.3054118846154886,0.933907471392305,0.9660998455193305,0.42940791027007286,0.2189859918330875,0.026725333951868022,-0.0523095020168491,0.026499402290824006
25.48161709671377,-6.726088262896212,148.33089232249483,-3.250664372492108,-4.834225283144118,7.711375483820483,48.85037642399863,2.3535471307925433,95.30849723185028,0.06469320379844001,0.7683627890495514,0.8032906085635512,0.027002744361243725,-0.25292958985385994,0.07155818542877569,-0.14339402719083177,-0.08665540321217846
22.640361202858863,-7.442405421560178,170.03833571174164,-3.8543795660395186,-0.9123371368447213,-8.731608641416173,48.85147972244404,2.350549864197916,99.05851961671038,0.3548212626748347,0.3567336791091804,0.16683717981230883,0.013688242190639133,-0.22355729224986748,0.08929728926701841,-0.16957639944797465,-0.04286492607849858
-14.523502337090664,8.40292781580338,-1.0446322761470697,1.2307139548294739,-3.1316986476720743,-8.653025858185098,48.853147051421864,2.3455348659123954,53.15969547836235,0.043897605797650785,0.6287608157988113,0.9342217823552578,0.9591598769131928,0.12542721053283631,-0.08028762000192424,-0.0015478673076620758,-0.008169362861592807
9.599042762050743,-0.3123387034875975,-95.64512110271055,-1.013556387622768,4.671185085126348,4.0348048984949685,48.8584753334226,2.3553640219068286,53.90339033170869,0.8322913276707482,0.7194160700822073,0.6478878438733887,0.22886487596004013,-0.07616212831503129,0.004692194826332426,0.10188884001439728,0.049369034722528675
19.033332012072947,20.947934879310637,-110.25763696922786,-4.4019152464767055,0.8272915925031032,5.3592780409635665,48.85873259381356,2.3442409456289344,78.27972373544071,0.5902068974170374,0.594484260432308,0.4777995358799765,0.1679801555946583,-0.18229220941049354,-0.2071532519927854,0.10461784579823916,-0.04024874043937779
3.3120486959677393,22.482119059602724,-99.7492097930974,-1.444316450389418,3.680954688303226,-1.3282116343606436,48.850415572943554,2.348322989748551,76.69502244184996,0.46937620657699597,0.6182572964447147,0.5614330285164745,0.08480419896243574,-0.030623978164947607,-0.22623158716116046,0.09933364767479377,0.03141029724929184
1.7790347013603878,-19.766377319608893,75.09359074392106,2.7178035228496276,-3.0431001323038798,-2.9538958389147325,48.853247245531286,2.3541971867214575,79.43273288889186,0.35984503973625526,0.9159688960838075,0.4764214959196367,0.6993839804720007,0.003933851885874438,0.18808023848825653,-0.0754185837862882,0.00795466498365896
-15.4888625459729,-21.82598090725646,-165.43953787571974,1.1524920521709756,3.100156993237878,-4.4410986758917375,48.85850384204638,2.346764579622837,65.8556307250257,0.4176567543291999,0.8810940194066601,0.47820091134409637,0.7274219508772063,0.14983989384977636,0.22496008914702434,0.16355149421831938,0.05330371067189706
-24.413833931646046,7.82405556215997,-161.51001370822266,-1.372139770130032,-0.8521753869476667,-5.312102283329045,48.852496932490354,2.3571072037117946,52.51715366128775,0.7878410240108533,0.9138049799405266,0.43120804554237235,0.9583469250093739,0.2470159857877287,-0.07950216457229363,0.17432833189509003,-0.04913265935130649
23.83294547719961,-11.926455116263234,38.93145925793402,-3.0819520836541194,-3.2230531115059757,8.239171793572105,48.85976003306597,2.3573085402127925,79.01755716768352,0.1800147499804099,0.8852108667645778,0.8958471112075078,0.8427011727486343,-0.25351322753887545,0.12791806312278198,-0.030535217114386844,-0.07313860926998547
24.025083429799828,-28.885756874094067,51.140572825466364,1.3179562080477325,2.6124520238823283,-4.09720907277655,48.85489303766576,2.3440506083945603,57.57227849482906,0.07143876271162342,0.6853934966997446,0.4558415365180388,0.024918765382376584,-0.22291605077960627,0.28214713779069606,-0.04676918451074616,0.0364821408864796
7.986087436396076,23.318560161777306,59.4946527560856,3.8755530094635517,2.6201109761528096,2.961575916223932,48.859373126893985,2.3488077997733017,67.06295564879449,0.5617249804241996,0.4917554128635001,0.2201434556237266,0.8135274581827056,-0.07320448910509625,-0.24161122664467413,-0.046097442474398356,0.08340403317013749
-9.658212537077958,-16.385953965371506,-46.123018348107166,1.4627271801591384,4.958879068640611,5.7418956076724434,48.85428826394365,2.3486402528657955,79.12245886534281,0.8589062141644546,0.48738358449938135,0.2287541522270502,0.9673573801876196,0.08957867805822914,0.16486614504265643,0.05218809001768836,0.06866221060278097
-9.047425523240346,25.756839101148543,110.14015993709512,3.129038546502242,2.8093726179816407,-9.560668431048382,48.85323798927088,2.3482009027060156,60.42432814165649,0.5622367924565036,0.7715613880569651,0.13161136320997446,0.5257406670663046,0.08422150587619077,-0.25705013486884154,-0.10878437117470718,0.05481725031389543
13.557340732214364,13.046067052695221,12.104851581582324,0.21527838554371037,-3.5473275207287216,-9.322517002336268,48.85362410175209,2.3500394427637255,77.12313725356246,0.7961550330680192,0.9239542117043561,0.5542802128317097,0.16367133291789526,-0.12589381737510455,-0.12835263650640255,-0.013972032472011356,-0.03887180464518693
23.82661559715463,15.759209394689059,-142.032373196609,2.179711067410288,-1.774552582142718,-3.3372519072526146,48.85884300582531,2.3414873262817073,85.73590865273171,0.8927590896981645,0.08805949903097876,0.3248219995895655,0.23227160993498375,-0.22275818640598014,-0.15891583279022034,0.13676362779553522,-0.0011703333959351032
23.225185455907038,-17.912310252410375,106.95575054424427,3.962267737783524,-0.48273082708854,3.9203148862740633,48.853306893862886,2.357400999906684,53.289019720980356,0.07688785043688917,0.8768262003681346,0.5774046366879253,0.8376284595307383,-0.2378892823843677,0.19052343056494422,-0.1105098202272797,0.02615519460040992
16.79253275145743,-15.948334462991225,163.104403057365,2.731789782586551,-3.733471942902049,-4.784027294753006,48.8566934622146,2.345798295567062,80.97361672512237,0.5891801647853849,0.8496783998624498,0.9308590614616123,0.9665247237167648,-0.16003075295885716,0.14164210271388786,-0.16269304637880044,-0.0023891311020467617
8.521898769257263,1.2760652294439438,-158.38692731915089,4.098539533981457,2.8803897444781406,-9.970334191354995,48.854698426821244,2.340036247869076,75.47171537509374,0.8327571101561906,0.08759015409286075,0.9556324518989983,0.9559696495854774,-0.09441828308309197,-0.018376849000244323,0.1522947688810227,0.07710937064809467
-24.95160210029707,-19.67400884100827,-39.11351806779123,-0.6886039788394012,0.26698537912586495,-4.23704200112166,48.85941671188727,2.35370207865338,54.87216922218992,0.6435398121134039,0.6565471416332517,0.3057985131020714,0.4958341648770398,0.25550775119576735,0.1976495538942717,0.03142081501897944,-0.0153716779784446
-20.302277154323175,-11.674098439018064,-4.494223859490859,4.042202551270567,4.444495690957535,-8.197383667129746,48.851593634720714,2.3530094416752174,85.31726550879145,0.5915386471921376,0.9718902454622422,0.22020996138702076,0.6167917846152136,0.2033894692911517,0.11765018702795403,0.010158624011158746,0.06759364135008884
23.913251311624755,-10.712251323131731,-127.2705263718059,1.2156723448170759,0.8930814452582023,-5.611733884153535,48.85428656830102,2.3596632442653522,65.54448626489834,0.788075679284169,0.8516574545007058,0.05533929495284773,0.6689781636318666,-0.25568680900914403,0.10446907664257203,0.12018271767231976,0.016110659577069107
6.385743579575397,-20.422204004834157,132.37522120183576,3.700487660816936,0.2289908373825389,-3.336199986014048,48.85124633811903,2.3543849442881486,59.114844638884996,0.7072640099502862,0.06284269172765711,0.27289070208781574,0.4242877524289521,-0.06904190655141279,0.19452572406246826,-0.13263202080939893,0.032363925763785856
-29.44817690300222,-17.689029996290355,-77.70612783958416,-4.606234695621646,-4.285748470671357,-7.438852898624964,48.855781393419605,2.3466541221631254,64.12276903225955,0.5016228097317308,0.9251868235677951,0.5062940322833207,0.9387000954215061,0.30281957086679495,0.14907859034255944,0.08209915986298519,-0.08652172884400366
-23.911707428038074,17.313110520495393,101.88307437773761,1.578523819135361,-3.506540950554222,4.1272945489532,48.85402899191338,2.359052351035968,77.3100136324443,0.04403339053753663,0.173084904978271,0.6026076698289045,0.8189997040512251,0.2438760327104196,-0.16516891626206934,-0.10224875461974263,-0.0026823311088731566
9.81010614648335,-19.968248727163896,61.55801353019376,3.4797507887789862,3.4952607676415113,-4.8815953598762345,48.85060937232485,2.3473069159852473,79.00281338366061,0.6133370972772673,0.07247574533276269,0.09816007970893592,0.13449424555553602,-0.11025992299473629,0.2013924802672012,-0.0660055655003503,0.06125487847719698
-29.69630496922688,-28.29255648936465,35.296496088128436,-3.2579796635680025,4.906759778258083,3.2218959860992484,48.85849838109767,2.356424893718152,58.48257523824567,0.21317522333149463,0.22783918035529693,0.2454960228626305,0.13243006078650166,0.2864070832928928,0.2920588964827318,-0.031028644386926266,0.02362589728410522
-20.351516914950082,7.761296557736308,-110.82857446924041,1.6178693346492317,-0.8482086410173046,1.9806570564233876,48.853755147828664,2.3467134813849038,96.83183548639127,0.2540863737280049,0.4832387480096533,0.0419562071243712,0.5607403159256727,0.18654777198271594,-0.09775097611084455,0.10571880034010372,0.014621960418469061
2.924027361995165,28.558987163547002,-100.54673260167395,3.249547142166314,3.100860837249291,7.96090975387472,48.8549363074095,2.340974166269804,66.44718036464953,0.6795439504906318,0.8152252346035467,0.7762135965168812,0.5359182798650131,-0.03744829150935702,-0.29549550555414245,0.10579763316590121,0.045434913092728804
11.513711861561596,-10.127171122612715,-162.95457429123505,-2.120506303673629,1.2758576633065175,-8.241336553106615,48.85407513335483,2.354675697219887,63.41453239505889,0.4530949986132591,0.2671191524151528,0.27016111739606774,0.018816566898171128,-0.11331998550027758,0.09932917722376443,0.16118063309036593,-0.014964111176198443
9.117675570156031,-22.88065780822486,-93.3435252783841,-0.9475367209360801,4.590592736717136,-5.707837772726705,48.8548865267845,2.3470042186150373,59.33614055099545,0.7167799314629172,0.39025213169859796,0.5691264179539934,0.4554642888893907,-0.08369735901027026,0.21366112066998952,0.09636708001752242,0.025140183152573173
-16.543841432366413,4.223239522051848,-55.64030059421492,0.6951771849921942,-2.6186276455590676,7.303568580879521,48.85016325197668,2.3467777539807058,56.02635915035435,0.39255879761127377,0.14107822301754214,0.4602172563934436,0.9481861261710915,0.14822181301987133,-0.04594780968726603,0.05697253038306542,-0.011366784741933497
12.730753280852149,24.38125266573877,119.93230939047311,0.19167688884562128,0.4483574300794304,6.4426291277138645,48.85815459529308,2.3543170325373297,99.10409578227927,0.8700316703892286,0.2915513178579293,0.47736337971943643,0.4454237534274226,-0.1259491338947993,-0.23500779539731523,-0.11345334685349451,0.002775938275307275
-15.765054750191997,17.04370678970873,-48.09863998267008,-4.6081060696286436,-0.9120418165740443,-6.157888856358986,48.85332308011946,2.346440757221401,83.73619773356452,0.42706830920368755,0.9020702876986056,0.6656887593827715,0.6719997386351428,0.1464984400490968,-0.17870848669215952,0.045561159014052284,-0.05644468681391862
-10.476018110443938,7.3509521047629605,91.66384179561834,-4.013279019145866,0.4171597594301524,-7.845279761077517,48.85724461764426,2.3423602540842605,89.35153658173795,0.49382340430034855,0.6807934985798936,0.41041034184343894,0.7040179931797461,0.10479730828686609,-0.06115241498376538,-0.08867469466415408,-0.03973900258112226
14.789484307081452,-11.096610203544039,-21.80077873362447,-3.995334206956387,-2.311419165811448,7.124829292403877,48.850648867953815,2.348090205038112,70.07434958686432,0.12627012816418026,0.6739240176456854,0.24984274532236816,0.030421258441527876,-0.12965962747018323,0.10290736603912615,0.017890037881316576,-0.059900920601313835
8.977973942832882,2.512810396573201,102.55259231779985,-2.37732094500825,-0.02253837284255944,-6.437238863505906,48.855238252524984,2.3564768807909764,70.7305440680681,0.503565059222824,0.2498403829047915,0.40955293017465966,0.27881218829520926,-0.10192361249485396,-0.01739371350325449,-0.10814045000801314,-0.03157748698182357
20.953404629650677,-24.525309521744678,171.45777615733437,-2.5413588719755076,1.248041467247651,7.422194121415902,48.85908791972071,2.3426040897601292,99.34458604367401,0.23980028297552947,0.14621513084975857,0.8237629579789527,0.938067086433619,-0.2093815235839985,0.23716343195104075,-0.1699197023572996,-0.01802783153799654
9.456773538020599,10.736725456840198,-93.65703909927116,2.422223837867996,-4.187841160005079,9.222293987554814,48.853982480355036,2.3510896155152765,60.034512501532575,0.7629808228124233,0.8874281590558045,0.5620905850688143,0.5102251803171735,-0.12415348005657971,-0.09375174232992269,0.09750132354475978,-0.025916693801540082
4.098516200128294,13.505761133859053,130.44298030699542,0.7274438601614452,2.429872548076232,-5.583867228486592,48.85197259010084,2.342645185878874,66.34662322074068,0.714044575319865,0.9436466076610751,0.9766176716262671,0.9788543073117487,-0.03553390223002098,-0.13161824751386159,-0.12738236677976905,0.022573577384695592
-24.379513930314452,27.90189737459513,43.856671070078875,2.639760846452411,2.065229631604173,6.8077519984191,48.85099081157115,2.3409836569687896,59.7580770013127,0.015843161105754122,0.0535823328069166,0.7850063725461575,0.8950009131128219,0.23919558582443484,-0.27459089858502217,-0.04149666717651779,0.04363792734324005
-7.937051816433989,-14.376158475295702,114.22593417191575,-4.3010394258912985,3.8045760145148524,-1.5233782003547383,48.85859087963488,2.3475741954913056,64.13120096421896,0.4938121244689977,0.5301618367140484,0.8256021138829692,0.28056079956545976,0.09110955059993268,0.13400279787551864,-0.11413172280887775,-0.0023303843390852326
-14.087857939096473,-28.892614857418643,54.57092481640987,-0.1478576252839936,-0.741434481900745,5.7755684950699155,48.8523880622736,2.353157666326605,83.17870953688839,0.04539400139620675,0.4398198419697087,0.7826652282432457,0.26684550671360774,0.13889330592312338,0.2821432162900963,-0.0489052183526468,-0.024102764191872655
-15.360621397254985,2.7365078656290365,-27.37817738130593,-1.7622442073473055,-4.383308673852823,-1.8520891804231354,48.859750711114984,2.3454997466639256,65.44584314756825,0.5692811633763316,0.7384034873833198,0.4423197867433948,0.35485319096302437,0.15885256250499616,-0.02327701849649851,0.02361431587073521,-0.05486648596705236
28.380633285146736,12.40743026380887,-97.89302180095547,3.499393107557463,-0.3853887097831308,-8.592088025325662,48.85247822783328,2.3489146229547484,93.77615240075735,0.9016389268800847,0.30179484125787337,0.8035674234016293,0.5090259654983615,-0.26464597723577254,-0.11820680635742432,0.09291974720666331,0.012767162480848214
-6.414136519994376,17.42444855297928,-154.7873188807806,2.077891569099033,-3.6239082793803856,4.253905452273285,48.85480990995743,2.349826618494862,52.43252742827808,0.8671688744004292,0.6205775321971996,0.6308136005172541,0.8969829684399915,0.07039495788336231,-0.18398348914543292,0.1575617176355747,-0.016881499389580633
23.522793310626795,-18.375664018511365,12.786611205858122,3.6925847082679635,1.4744681352181779,-6.986227201928418,48.85457994131799,2.356825805626838,67.73605994377365,0.24381509024395898,0.08258274729770754,0.22567575690799913,0.5013908333492445,-0.2283548031867113,0.19652619851463468,-0.015589893123605487,0.06245660283029675
7.8683175598357735,-14.29482785777858,176.5173940296716,-4.5357287759394,-4.528684758686942,8.54050178633398,48.850620096193666,2.3563795841681068,93.0353503499779,0.14011381521896105,0.8229540106486173,0.09496560494592021,0.7834433557818826,-0.06665628842968897,0.14464937689772053,-0.18099873798971075,-0.07680375001401432
17.688678212498907,0.7554555160377809,85.69504980511425,2.2082348956660045,-1.2600359377230488,-1.6450743395859746,48.85531839419817,2.3400469441970184,81.06891865301453,0.7910644755814644,0.23869706503922317,0.4988506096560681,0.5788986246402592,-0.1731125608688533,-0.0023528872418777658,-0.08250205576091843,0.015217338494661708
0.15822558631152717,-10.163951401799888,-62.15560509635402,0.4000835215957803,-4.171571015125046,-8.359997041808409,48.856726409796885,2.348278379884383,88.54802606464276,0.5461827521514198,0.31392594204437385,0.5829106467728543,0.22894991904825235,-0.009133484176997235,0.10508077374251626,0.06713842515263174,-0.053960178705661874
4.614233077581545,21.630689195246703,117.7937280312247,3.2500002901556577,-4.966335659283967,-5.430399704520113,48.85742135663291,2.3531218206392004,66.18229960733554,0.42382920725942197,0.378242939405419,0.34941179505881115,0.4216583918662966,-0.07155633840090411,-0.22971756730983872,-0.11702191300361746,-0.019122994088954348
-0.44893837086816646,-1.5743907756767825,96.83424006350634,0.07160590925820998,4.605572239015919,7.250352349353893,48.85522591756311,2.3570479234112316,68.46524178415446,0.8104976694338756,0.206615815230052,0.6296411731459866,0.4126267159294389,-0.0017263910480310035,0.031099044215221323,-0.1052315363531243,0.06585197633846475
-18.28542073211733,17.97471864612018,-78.61111439275555,0.4020907790190895,4.961273480262802,-3.5782906075169363,48.85812585165122,2.340977955666356,94.41144220969639,0.25251150695088964,0.8088980237395733,0.1507619216602053,0.992314085154948,0.18934432190184688,-0.1649848107975335,0.0894781564676029,0.06694258843897083
13.347126915690318,4.837185628941228,-174.84930367407551,-4.482326190579348,0.5550295153181306,7.12655989959379,48.85752097501844,2.352564966368218,87.47890946182439,0.22460834216887127,0.06867443958165431,0.8063233640613571,0.5498857852391056,-0.13775163261213616,-0.05146408149083953,0.18000562776901335,-0.04032769191118625
-13.153658253548652,16.385408497026717,-137.46145012777816,1.685228650359667,-2.6104415005451607,-6.554265232157022,48.85193974312087,2.3568403899513224,69.21303047556896,0.6119318907481801,0.9335328026593412,0.40078134032712487,0.07570831176785153,0.12967085256501643,-0.14412427636168867,0.1263040972933118,0.0033927678517015614
-28.54104201411277,-10.039620808180569,135.83022851234074,-2.2686012439494996,4.110990368086574,-0.6356375284541098,48.85401601681899,2.345101520411667,60.76791227936145,0.2725851948325675,0.930592637432326,0.7259431895707226,0.5746448725211578,0.2831731318802022,0.10203314724348835,-0.14420481301174806,0.016631095968696188
8.728337754430072,19.884997315818673,121.16269270975386,-4.803060778211795,4.230365970761067,7.565189835732326,48.85142581851209,2.344105126627333,55.31449906167812,0.4267901981811959,0.827362314403796,0.8529781270897603,0.5664580287377917,-0.0927673538132178,-0.19686705772049765,-0.12006575688309695,0.0001928592290523735
-19.373359235577063,-13.525661066938707,-73.72475968378953,-4.3356283749396995,3.54508891170706,-9.031903353534869,48.85133423653771,2.349356987752132,93.09139864289537,0.45481455573285245,0.9521457629990384,0.2388756155155699,0.48044078643350885,0.2003599178927584,0.13330749978827758,0.07636223071041759,-0.020671415453314815
26.42751506117486,2.765928480197445,-77.32964653760865,4.572856089660256,0.44369984567382037,-3.914456344407591,48.857121273546234,2.359251591635471,84.88240772025294,0.20502377889058332,0.7611420416860429,0.545428050594114,0.3206300576394715,-0.2586481112177802,-0.029304756635869924,0.07388451544356506,0.030140296721042136
27.235714620155242,-17.159573209567547,105.4313953568896,-1.5392271042015304,-4.252978391039726,8.197031788775714,48.85530459132378,2.353857727890159,80.36710617554522,0.0616847375733478,0.5625821056569451,0.12499346153144064,0.24792438645575665,-0.2735573146052507,0.19085619464187645,-0.10475399894544048,-0.06627235483407458
24.891863413226915,-1.4684087024283983,157.58548916235196,3.68075628621159,-4.115610724632022,1.9305265541608634,48.85600949808478,2.3484897009294343,88.82939171495065,0.7666780141657001,0.7216216098247926,0.04257885979311127,0.20556265185316536,-0.24185305084970796,0.023179733988447818,-0.15391462677391674,-0.002332045172289521
-7.790477984673338,-10.90948742947781,100.48941244713598,4.596772340692558,3.966197877126552,4.3246426204426935,48.857321842832725,2.3404172559988834,95.74947128576679,0.7835873946465536,0.003950157501422469,0.04004903315555963,0.09128628880075218,0.07840330534901542,0.11051989310998231,-0.0971217723500594,0.07518713703946418
-29.072603008267954,-13.997794161767146,38.00832373107414,4.432671888373228,3.7582684745722936,6.842568771848146,48.85277234932162,2.3511345172687577,88.07946298870684,0.5983695770328092,0.6854239812870193,0.9501569403052323,0.3783412313532579,0.29208602733028943,0.1352369036515084,-0.04295542190961771,0.07697981301342532
25.699113755263525,28.01910108168225,-92.63831388055037,3.8172524069942018,-0.6560275081878233,0.4719285253823351,48.854013619586524,2.346975760035938,71.03296693597154,0.14860955807774368,0.04202691001778913,0.0447937234112028,0.7196313103608046,-0.2605095079074974,-0.28481628729870073,0.10293053945918376,0.012946484996712717
-4.3089511009611385,-20.39555367079616,9.269249074293839,3.9484391246130084,-1.7184538052357468,6.907318020432001,48.85606803088984,2.3437142728430604,58.8235108704881,0.47621323059049725,0.8876503223519318,0.6031585647482659,0.579672958602117,0.03892031373614085,0.20190502003499675,-0.00119822774653899,0.010875926068991567
27.99928914262017,17.239550247443717,-95.93573090642474,-2.109919556590485,1.4412392014410216,2.775291413368164,48.85096628981419,2.3500029620440444,85.69120894520438,0.177899364552505,0.8965259731445467,0.05739136106023168,0.015096358490033657,-0.2847302083310057,-0.1825653595064063,0.10043135408313586,-0.022839779016073786
27.817198625355168,29.049897568992897,110.88411123483849,-3.485301097396417,3.0698794825552493,3.7130090112700422,48.858330540811956,2.346827652679344,62.33606716323497,0.8812734570668354,0.11432002385216467,0.7146199837430589,0.8342509001361629,-0.2795093919069266,-0.2883153720436716,-0.11552888534772546,-0.013356692895685352
21.180567328041604,-28.80591097559533,-40.694011373614586,1.3926256208792367,2.31684942051821,-6.942910896637211,48.85343449624189,2.3407744936558386,89.13066849663106,0.6972886220785199,0.6796297506451031,0.4893239272731068,0.39990509163121635,-0.2066254626476935,0.30297401202173063,0.04651898535261843,0.015261384016759812
-12.333066475824857,11.941644842525697,120.13099811784946,-0.1189440813117617,1.1560293805070634,8.780376584694078,48.85658752984035,2.3545101204046333,66.93652965787305,0.03137657482882161,0.6681437534953979,0.20835701329778666,0.7026385104393041,0.11824547527343607,-0.10692976843605484,-0.12463546310856057,0.005474125544902237
-6.894136283884485,-14.825291666622773,-42.6206815262189,-4.012532813048289,-2.684889555551686,5.9216870086983135,48.859955649018566,2.35465165839925,57.83859665597693,0.0016659092251731789,0.49808166434841084,0.6033088466710737,0.7637065159936604,0.06940788421960864,0.12905346547460217,0.04617625501652904,-0.06661009477652127
21.068200291011415,-27.57073054030173,116.69378587196087,1.7754131602241081,-2.3749513077928484,-4.9160800770570106,48.85475362445377,2.352376628995174,62.73235273248742,0.9837609182338908,0.02502364079812669,0.3342137089606698,0.47655541407912727,-0.19935915244384286,0.2768226046775883,-0.11487896564910142,-0.003105071816954734
-10.984679690623341,-5.826625262602153,-60.005586540512894,0.6286000748477338,2.2406748139770176,1.5998933276610607,48.85215048449289,2.3568164130699243,63.33191113316454,0.03984690015514114,0.11410349766627859,0.1515130358460126,0.7923665739520175,0.12075879387139443,0.036307252800708435,0.06414331884914436,0.04017586824009345
-19.83043519883445,26.113068610252498,-21.552226337638842,3.630674008104391,3.02619852451031,-2.4706819027767786,48.85216433398782,2.34406363087562,68.94006186184231,0.865859730250604,0.6592755405868856,0.7397696846490119,0.6097078643762334,0.1880616121289159,-0.2526270150681416,0.019461886923237304,0.056318869869246196
3.408075747501009,-29.294094337980138,41.57583096335671,1.0918379568839862,-3.838648119004101,3.208039976198231,48.85060376216186,2.3457240310322827,62.86452069366146,0.9558156276216285,0.529617917557417,0.38177401142136014,0.7964142102297991,-0.010248382052776697,0.29235230671511725,-0.03488257441539083,-0.0377042085567949
26.16928644964686,5.273141515786904,-154.69645894922928,0.7394617972175368,-3.1270295228869394,9.874936864049403,48.85767082300996,2.3491731156575333,61.27787494704451,0.30810370726852654,0.04625639983611052,0.4691787115986735,0.6830997798330232,-0.2553375747777828,-0.03199341549705499,0.1563376073511455,-0.0325169207540557
11.761787800498382,0.08378871571946078,161.35454225356722,-0.5924827666737205,1.804702621773714,-9.085072057127096,48.85293431340092,2.3412035036797434,69.58744443412475,0.5401365602942936,0.5175567522478197,0.03865015494556834,0.1636932314189431,-0.12251293233175323,0.003525401463898844,-0.16507816093230093,0.017016508865699036
4.203670205361895,22.403049862262847,26.49808300456914,-0.37212930111129694,-1.1101341252859886,9.050472759272491,48.85172725762536,2.357670915598163,93.40501047057052,0.6474081663475387,0.8492364150645109,0.5637234574964308,0.2408242826679291,-0.060714430225055474,-0.23346674489434313,-0.022972598725574344,-0.012157574361708865
-24.169410373753887,-24.95989712876246,2.8152052886888157,4.543812269791161,0.6329286727103067,-8.552173357126996,48.85713696033815,2.34981257215813,53.52279234569278,0.5204268193995101,0.8904685381993311,0.5137316851275049,0.42472376319555594,0.25043810387378135,0.23564119892618285,-0.0007428006579975432,0.04719019892704486
6.9004336019501835,10.891561793199017,122.18182960316835,-3.6155399059976068,1.1481495265563613,-0.7847072831844404,48.85309136641414,2.3464932648455488,64.81201421460268,0.21350416418841933,0.6969877691487034,0.7484843687095433,0.37904029745035295,-0.06481265882309549,-0.10825395940444292,-0.11779332089666314,-0.008781448691272689
29.403231006255794,10.806581905996637,131.67458276285794,-0.537811814178129,2.7620346726733196,-0.3578159881312786,48.85600468947664,2.3495592689472606,78.11542058928634,0.5812345442416192,0.6626442687385865,0.47814261457247276,0.3107455717498634,-0.30328664445564224,-0.10517758810821919,-0.13454756670449347,0.021105878720852973
-21.594959085808558,10.144801011736995,8.013745630445754,1.5582723392684281,3.0571695071690748,-4.625510908003829,48.854178262138355,2.346502596434725,93.72401464584857,0.25867084332129886,0.7691066319882607,0.844032581390513,0.46303073380086524,0.2170398754442044,-0.10568016123950519,-0.009297330078617116,0.0412975600709437
1.0997791418242038,26.540069696102215,153.81443728570946,-0.6698935440960039,-2.1990375473854353,1.333985721193729,48.8533415272968,2.3457252684086534,64.20659099947672,0.1650223247067173,0.13341392226251458,0.3480139933026035,0.5212207649812977,-0.024996252025056467,-0.2673744677270292,-0.1527418603997756,-0.03265863828591604
22.642384315677326,19.385251740412826,-156.69440421246696,-2.1678437295924224,0.41296728922171333,6.679282926772537,48.85489429595539,2.3489603687851406,67.43712112726621,0.5055240602109554,0.19019522247307552,0.7471450226965561,0.9100434140866746,-0.2400979517095506,-0.20135333345266723,0.1537329912059971,-0.019069262850585203
14.446117065252267,-27.481636425389638,-139.2387147895617,-2.126426292371452,-3.7647606137811973,-4.120756375774537,48.85313793239372,2.3496380934477012,89.89753511655917,0.371998825677742,0.4857353387474641,0.2417349284479926,0.30004022491052595,-0.14742951190238165,0.27674565657806055,0.13568864447044418,-0.06572085142818228
11.820944459716081,-1.7350289577292095,34.84376280519845,-2.6634395374228426,3.420151686975487,-8.591901246957248,48.85870564919143,2.3486669078674454,68.62588362133039,0.027409734705735267,0.4510226618643087,0.8632237390981616,0.05495308768707363,-0.12043867282867683,0.012820264433668283,-0.041233373255402384,-0.024021693843663962
12.149045039226557,-6.122816627919992,-52.53628975430988,-1.5609679941691033,3.4544793833319574,2.645674012825248,48.85073040304425,2.350958619064124,92.57768990234402,0.9496777728093209,0.18436082528888742,0.35189128341299525,0.31322683053674116,-0.10656340735898766,0.05583147620993328,0.05258241748291127,0.023116870351026608
-8.43053092681469,-11.391166734551877,-12.878940171888416,3.7167477558356694,-2.004942810005436,5.034902582965035,48.85030153624947,2.3556675800456968,72.76354546485172,0.039556616385507226,0.6782589082291228,0.736397980482529,0.7161895423141049,0.08433846069347994,0.10219011101251164,0.009673790177717509,0.024104282283130465
-12.384489344130397,-2.9197964907541625,-61.89148155702004,0.05224550322995203,-3.393797925779575,9.090460195921402,48.85406393027384,2.3411453638332933,78.45482938383367,0.9029558244539954,0.7410860740759434,0.8042472558908453,0.38175052631842277,0.11928307654145939,0.04627792981426242,0.05858401122597961,-0.020370771548617043
18.56166932871082,-6.948348904441353,-34.298887879823184,-2.5976127192218157,-4.299082217997334,-6.80950706313234,48.85172843634989,2.3562303737322496,78.04404831527131,0.18973631205286123,0.2708438649338172,0.16412561290496452,0.19410998889606357,-0.19295032569656015,0.060733906760146575,0.0313402824950749,-0.06939176611841068
18.606803680750843,-4.059966007280082,116.15268497266783,-1.1547328297346757,0.7497644191158592,8.027197316096107,48.85743726455023,2.3445706878471233,55.965308569983556,0.1418623229047814,0.31293708588222313,0.8012459173679582,0.3873973057490673,-0.18338613815130392,0.047839573234678405,-0.12323374742347183,-0.025234548943741213
22.024339114806224,28.75571193651855,33.65143194754967,-3.9416958792143197,-4.0857189960012015,-0.35753045621775215,48.853534339107235,2.3450418583311414,67.74712681604673,0.06916395364742944,0.25733007951765174,0.289619649031566,0.719980019863245,-0.24521913300532944,-0.28998115611189085,-0.03644063081476268,-0.07525571574689424
24.794433153388276,-24.682021515025156,179.04403774205934,4.04035739738738,1.8059484462059991,-5.28483525951917,48.85261437712162,2.351989329781336,62.07927088694438,0.4257047321655504,0.27860357974411565,0.595191331329611,0.0935951387419578,-0.24683247822452947,0.25005860498268934,-0.17818615385555903,0.042757886100210335
0.6805439316562669,25.33385219032379,103.27651121554663,-0.9180216790856797,1.781264010341463,9.254969403925386,48.85359381463203,2.3595134260555164,84.15106205553164,0.5868624755723052,0.36467242072016826,0.521606035858955,0.6956250669467167,0.010469928418469821,-0.2538578097987912,-0.10651684820916,0.01845240804322343
0.09097768123197625,-1.1857971917383985,-81.48014852334241,4.8039120459307565,1.139874071316246,-5.231414589273539,48.8521948393131,2.3403479866710497,96.68234184351627,0.9037345839877139,0.4410909912908646,0.5856122426962966,0.13564138739445497,0.009105858678092644,0.006850855340003069,0.07419458744224956,0.06991521799217215
17.89771073800651,7.424534729972471,-84.83575761838937,-1.5246122673748075,3.7656050186309447,4.668883714718637,48.85299652479,2.3534626717922857,60.62098271487631,0.7837485317670128,0.4841841389140441,0.7885882306903399,0.9799071689327699,-0.1579506293479911,-0.07624224870354165,0.08947999898030551,0.00571133209188588
8.997835846665907,19.810977997061634,-59.07662275787743,3.3635604722712102,-1.2171930727086822,5.697735568082587,48.855679852853704,2.3539379441183197,54.56303153338409,0.15962363328238416,0.4849078331474229,0.8313153965987257,0.44420973748304915,-0.09695802372255599,-0.20822290835631002,0.057657866495382785,0.02882876575115112
12.1180126354622,-8.372218251044668,123.57341303318736,-2.4361468670854682,4.022695826245776,-1.3896189515217632,48.85864032545958,2.3514730359201534,75.32953639877672,0.16772587093897817,0.6172796218630712,0.25076319989387796,0.39164364041946453,-0.11657869264209525,0.10100237807101868,-0.12431661882342385,0.013995591955313937
17.74756016616606,-4.174685514721986,-170.1764457657964,-4.238471066223978,-4.630746311538692,3.7996968945389025,48.85370869358917,2.3401938022879243,69.54184114399696,0.008160367091760268,0.3441015666069881,0.1892317185448057,0.5852337066978053,-0.17912339341055486,0.03880482183738819,0.1656344468141334,-0.10104340408040052
23.400320509053977,-5.4288911832771625,-97.13473960634722,-4.682666383261993,-3.872430120785925,1.4495415005850205,48.853206717772444,2.352127035935732,51.78588576101809,0.6878215294059863,0.5034163260714226,0.08371399523606138,0.14439055075268714,-0.22181450872078523,0.06052994506098772,0.09268696901182352,-0.08253205073107948
-9.72029058890785,-7.516138647854408,145.77063132393613,1.0616842664478359,-0.8779443748155664,-6.159344951337646,48.85781789878645,2.342300426181053,96.0810820520241,0.017479266958108974,0.5060979823409827,0.7059928273966865,0.3326268107190101,0.09622720052542494,0.0823078159990804,-0.1451725541516422,-0.006304252091997598
-7.465022841603361,25.531759298813697,50.36271698997072,-1.8842632832641062,0.9399301868857348,5.197757642270769,48.85022426383558,2.341561353785148,97.00753342364823,0.13854843921066784,0.0966907698514935,0.47620715614463205,0.5718657913336022,0.08534596809882887,-0.2502969421378864,-0.060484754600303337,-0.03448762534877384
-24.361083609547862,19.735793471580727,-98.33504561961969,-0.5648011952417162,-4.676243633606344,8.560322896728685,48.85302076325412,2.3539212316980986,92.52064340941907,0.6345488221306782,0.6293519926155654,0.1493870427116647,0.06906035475256811,0.2338626595143621,-0.19228447261931103,0.08894074013548904,-0.039979185236951695
4.696808459770438,-23.460000608221435,-101.10781143627108,3.1864703560079537,0.6743447142426406,-0.22723890561719706,48.854521708185445,2.354004691112364,64.02598045516626,0.1502682740836826,0.2781676579940593,0.48327598787502657,0.2566463894045612,-0.048449965204926386,0.2224380654804466,0.10330787098779357,0.04231787379035915
-27.843463572195475,-23.512598851374236,130.542516633395,-2.5189191430519786,-1.926016835169686,9.886205081335163,48.85600661676849,2.3577982373638733,56.12139728390619,0.15321673943268943,0.04696162471965448,0.9845608936202619,0.49735641489611737,0.2753569306136948,0.21813191991565867,-0.12893794793009503,-0.037300536897243254
-2.0641189120523897,-4.327829108820531,141.75270297973674,-1.9134752326508675,3.8714680781182924,-1.4406937293027866,48.851560615297785,2.340067609378186,79.62472111011772,0.23400313908217196,0.647101121753918,0.5577563908365348,0.6735125533427638,0.03285813235024736,0.024850097981515062,-0.14630721294305118,0.036004751092302695
2.5586780824545983,-24.08055739603146,-87.7928072536385,3.4533618505866723,0.332845916687309,-0.40526848657146,48.85432854398055,2.347575197082404,64.07567955688378,0.3852608122599366,0.048417781088883394,0.8720776809347592,0.3117623248492266,-0.035511624252559326,0.23072182285328227,0.08593242379796037,0.04059849103025257
-12.807524872302935,7.145585716267178,-28.616271092448386,-0.07237726656495891,0.8789390821743375,3.4779502794726938,48.85566300466882,2.3402454399791055,60.085891973534935,0.007866097647366344,0.44188195798713037,0.08837149861373017,0.6251747002265065,0.12339357768041248,-0.06675391738487269,0.02551696124255968,0.0170847346892246
5.449995634140649,-21.378503564295965,120.45446590619417,3.276651670524876,4.456218111148832,-6.284597115513124,48.855102504584735,2.347293250923885,82.06523867880881,0.7460624042352663,0.6211496828734658,0.9020744486374342,0.25134498767791924,-0.05642623125836591,0.2401845196888977,-0.12704295142687788,0.08612110337377077
-28.169985003657033,1.3423958380080627,97.56267789955876,-1.2552399653368362,2.6417102665459353,8.03892019894413,48.855745510780466,2.3498331587666925,87.51891911790065,0.7738237442327242,0.9985860147261965,0.5581314170438744,0.43454100901205983,0.2629350336241292,0.005316655116262356,-0.09893829413336336,0.009245876180349492
-27.759108675047134,-29.566803179776933,113.00979836379042,-1.0163001917289147,-0.6172673385323435,6.025455942789343,48.85662398267461,2.3505945832310005,76.36413061654518,0.3667442297286253,0.5151274120419268,0.5399603470214684,0.42238912687005725,0.27456074738702696,0.3098191018099954,-0.11468094067515812,-0.019799630641693006
19.356033639579493,-11.004219095241197,6.623348683668752,-3.3286163822174375,-0.2312038504398064,7.448345727835587,48.853793726691315,2.347118654271332,65.9997052979939,0.7981238127770833,0.3181961953289272,0.13774443603802022,0.03555849680911005,-0.19270342939385382,0.09904555971220297,-0.001271125528047156,-0.03547584344500923
-8.388561515324227,10.631443420359325,148.15765738986232,4.163458535949664,1.4792386855939892,2.1911715900817477,48.85063635741776,2.3545060273621297,75.62604837364742,0.2847716302152091,0.4920144574053217,0.45685978915804104,0.9401389006941197,0.09947857540523436,-0.09592443899189064,-0.1543749160077416,0.06682880454988574
-22.376369240886913,-0.9576635863290939,-62.6574441764033,3.9678369401260944,-2.998007833494869,7.674959223589859,48.85055556282306,2.3483118984550244,79.98679866604756,0.9856934548363228,0.19570380512734853,0.4845295225724494,0.753527763623319,0.22055150097420614,0.01087151563561416,0.07568782288713184,0.006532289513584787
1.334595603288264,28.696169159939288,-123.59803163489352,4.842170145647735,-4.113491595058774,3.5994497455611025,48.8585871464702,2.3503425308462647,52.59441675974324,0.39773224007918606,0.4379510090582537,0.13999379126752431,0.5870982373914149,-0.014731145431268241,-0.300655432102283,0.1178840611506877,-0.0054346406147958585
16.199613185916647,22.44622776397265,75.14363972335133,-0.9755287283028844,-1.8876348405438161,0.2312179957151912,48.85677419216829,2.3560017520197234,72.19068639982204,0.668816531929192,0.8730794393081506,0.33557864801269655,0.32346325015285526,-0.1676939221885468,-0.20738116308741955,-0.07265066621681461,-0.023345968275074784
-17.05073835018941,-8.455753257410926,14.167589762482692,3.186149417586421,2.7838279793623038,8.635816079694315,48.857641846825175,2.343486055326688,79.91653337410831,0.32244600109763355,0.13612346328061264,0.8788702008814452,0.8253967507152429,0.16563201734832475,0.07906901817074644,-0.013917882800882566,0.07474860861798525
7.373428549140016,-27.270807511663524,127.65087677141315,-0.8504626832788142,-2.4267620123004896,-1.2056046235699736,48.8592880461993,2.3464179046512363,56.47424914484801,0.45083084868117473,0.5301482793328951,0.03335723549378933,0.7045416329506955,-0.07678706399457466,0.2904942543761611,-0.11496051137623153,-0.02983956429722521
-24.879152100373922,20.73757800690113,-150.78267031510262,-0.4570121107902727,-3.692407996640803,0.011397109837478325,48.85750544403306,2.3504285920133605,72.44181315859237,0.6450843531677652,0.6208066953377046,0.5236587734040348,0.13900182538446992,0.24779402170198095,-0.20099876925380702,0.15469421874395023,-0.05296997532626019
-26.89909672988354,24.67405861888028,123.72926523770406,3.2999939359482457,-2.8097740153773976,-6.609125383465006,48.85692301268415,2.3553523644992986,67.33642756145298,0.3475250296261506,0.31300890455145647,0.7816631896162012,0.5640991998809072,0.2722249238800177,-0.25197746313694475,-0.12039834381509769,0.024967733824795564
1.8812778940888784,19.23764360514221,-74.41392484482401,-3.2263322911360026,1.7897291200570633,8.953180197179208,48.85655758538906,2.34850710854978,93.3942434199152,0.6565923218786935,0.735914173380829,0.9677404420869736,0.2638073274705176,-0.012774317257748514,-0.20622197233380582,0.08067385426238378,-0.008560342285627374
2.4381072966063897,-22.323003544814107,55.74804018054587,-2.7968906553824766,1.1394805669351884,-5.578943830753886,48.85258573384676,2.3414553354454006,74.46930058845597,0.146014795372031,0.6637054339504637,0.6580980776896003,0.726218151486494,-0.028305661485040812,0.22619449537105268,-0.05651107322772957,-0.01963487519566172
8.245794089892392,29.874908064737262,-165.55363593182793,-1.8527175960418498,1.883149972964362,-5.971681516166667,48.85957294071748,2.359776610637441,71.31378165709604,0.4837525513048696,0.4639892913275747,0.04029919932820247,0.42243659474288,-0.08040050761799242,-0.28650228417791107,0.16297300119232816,0.0056247901094198015
13.56548002335969,-14.48494670683357,39.449266669296264,2.8817903250005745,-1.7804187731961796,-7.976107915376584,48.85542044308066,2.354158214453658,62.19407859305862,0.2728591311741957,0.6400713771878511,0.7191089713123276,0.25371038706438365,-0.14023046566490416,0.14598976457061422,-0.03672641470258591,0.00757773267000518
28.55112476775208,13.452294768502206,78.21780810744093,-1.2734845063191722,4.008561269332716,-0.9328109769606225,48.85222073894619,2.3544547027189524,97.87354636919947,0.9200283938386655,0.8402666056425157,0.7291395066657577,0.9182939347828535,-0.2928400952983038,-0.12426679695346131,-0.08018739545910458,0.007031735275355562
0.9780208980717191,24.482092580143295,-47.24992277797671,-1.4183179171923843,-0.48229642671854567,-4.527709002438343,48.85209826211073,2.3493020982304293,98.05804765698934,0.8247036896424663,0.6004100490748557,0.5371251395940853,0.9107380584910401,0.0022643369647174037,-0.2448865807465078,0.04660033748753056,-0.011478590172787547
-10.622611623525241,-15.858773140157433,-102.45214610562951,4.988163452552417,0.13713031926943664,4.815620010628859,48.85815265911494,2.3509408011388526,68.33774455945256,0.48741956242882123,0.5687939749503876,0.37781039027942664,0.8209091489885223,0.10623624416368177,0.1538650211333669,0.10720193971789835,0.06090002033808111
17.71117168612222,24.495513280623967,13.547043577276213,-1.1619385690052053,4.488079760021272,-3.8495675959189324,48.85250208601456,2.35988096887567,96.45201090074117,0.45375006399391327,0.6214267114818195,0.4396608707351529,0.09584227773205023,-0.18274700221394236,-0.24778231010589985,-0.020461523872121478,0.04684702491432403
-13.750064924275549,-11.431105248307983,119.94868959683276,-2.52229463684413,4.792772679449756,4.4154052344878885,48.85041426397876,2.351902314073549,80.93004892610816,0.8339892036014739,0.675574901461942,0.9452093602610944,0.7550188385021187,0.14013456358608328,0.1189559788566352,-0.11962515061085158,0.021850650742648497
-3.6617147576618336,28.584793343043366,-63.5229510132057,1.2321367820094329,1.615427259165517,-6.080778344474207,48.854284122728345,2.344378589321699,89.05235713277793,0.6904501228935271,0.4031536898310569,0.8873983775565197,0.08108456291096022,0.047485438296645505,-0.29035878681898664,0.06268944367092484,0.034428157348463495
-25.29261711946404,-13.124398777171525,-89.11105289233936,3.018799519550008,4.448131925757911,-5.400683131998337,48.85817350454733,2.359287594794385,54.49232452595014,0.6833206024454989,0.8368136532313477,0.28414476651319676,0.1045386959758875,0.24721574524956327,0.12592827705089185,0.08758671132313291,0.07620375302938039
-28.47895539507255,27.206149485470107,-79.58328889043244,-4.303921662768407,0.41507386340443286,6.123483208830105,48.85414439641186,2.3507552536489222,51.06549487503083,0.5482545218444469,0.9239036771172672,0.07406924817899652,0.16253622478999963,0.2884831692715443,-0.2868805417069899,0.08213745717327782,-0.022715871957763832
27.7589048806755,-26.787320946439507,161.68757504999917,1.1889223113847507,-1.9271705443322826,-2.5781289615047225,48.85803547577602,2.3404134669774983,75.7038811623299,0.8623595242257663,0.6218631319863706,0.744985923347249,0.6891530889479827,-0.2720530514941611,0.269625929729682,-0.1692570005285716,-0.009686577776079702
20.15880723073235,12.556320700188778,-50.66031032475851,-4.642645441197752,-1.8490714403345865,-7.764520487906143,48.858272109757614,2.351467029559806,53.795408662137554,0.18949959493668544,0.8867279416008529,0.5329992448148076,0.3840453359008029,-0.19988742793070666,-0.13010002626735812,0.04639427753554479,-0.06680753840364868
11.758452365621878,1.9266680302202204,-178.70247364021662,0.26332350979517916,0.589405898823455,9.22807610176816,48.85857707162789,2.3414095120601237,94.58500771774519,0.8618861170607074,0.744650203066553,0.6402613563065814,0.8435792481901865,-0.11764810413082517,-0.032622824619921414,0.1763781886200025,0.003927357752071808
-5.462823335143806,-1.327375372636162,101.40523486546311,-2.4300843624219084,1.050361206551984,-6.452156871127772,48.85588899840766,2.3505517662070727,91.00762262216202,0.5207411437007949,0.4229650022168878,0.9438625120462781,0.7459836122394707,0.07279637466594986,0.009020601560531158,-0.10806568789395649,-0.013455854986910426
-19.602340795749253,-16.5903411446496,71.73892632074046,-1.9335830232681426,-0.6038293008025111,-6.996057626760852,48.85699470770172,2.3565066336773675,85.74166388739329,0.6213274928666105,0.49601737461867523,0.9428799907672368,0.7674977597114278,0.19262245903405223,0.16649137224010346,-0.0659172223926602,-0.01683952551999536
-20.61377743973484,12.335747386589517,-133.7154247429312,-0.3290403601761742,3.8377148351184385,-2.832358732967604,48.852618590608365,2.350777327423044,51.569825517956595,0.9624213506068359,0.5701314566241911,0.8302027373436701,0.9308809921500376,0.20550696790499695,-0.11971373175665237,0.1304617014832576,0.05264497486564321
-14.98542611012428,-18.551430513221575,174.56552968856852,4.271074607455871,-0.7330388128644945,-8.08732461537353,48.850996979430164,2.347469066678193,72.916725314149,0.4245032701121223,0.9390652287119042,0.2649358490877649,0.5944934866763658,0.14568771058791882,0.19169619264596713,-0.16459399699239574,0.03315262159372796
2.9535998823672287,3.1705077590860924,38.90242270984004,2.1066730658787645,-2.2657635300233214,-6.887672480976623,48.8553278052418,2.357652195016718,53.90454702501078,0.6680320568584354,0.6480794108634037,0.8013558193365963,0.8532275982147446,-0.02568439963035802,-0.030194509536851048,-0.041326658920858086,-0.005739344904026611
12.875755362003737,-14.805278217584952,0.2806167386165441,4.368455962844964,-4.920181216564602,6.92889195069899,48.85010581892598,2.3585518015585927,96.4321223175553,0.5221300324669672,0.5085439635342868,0.8471317710616205,0.2563789028199501,-0.1446608738934521,0.13977153309180324,-0.004292450910316405,-0.02554216406266521
9.611842603063877,27.337282786881367,-42.40106365575923,1.599710045586776,4.705692781576369,-6.569862885806628,48.85465737850952,2.346949819647995,80.63092863732538,0.931605823820955,0.1233986519900706,0.0008899870132795806,0.9179154450274788,-0.0852477585271429,-0.2694082277902078,0.046425608731022104,0.06060581600355454
-13.20396618324343,-28.282128369860832,143.52219200290966,-4.928922529121404,3.2431328314294436,-7.771463726749232,48.8510209362007,2.3499790156795397,57.82661365223976,0.4876455447401472,0.6668804222589557,0.4085586727227428,0.9393353336434876,0.11887852349624363,0.27492492170164284,-0.14806036645306128,-0.029031505782174373
27.291916839791647,-18.016303193325808,-92.17314668931722,-2.344148026523224,1.1555958468532896,7.599150737625244,48.85108420299805,2.3596584459217946,78.03045919697368,0.2561319508231793,0.5547265545633412,0.3130049874144549,0.3904695305618756,-0.2686217774977815,0.17412234448594618,0.07772544645999103,0.013383972833817662
14.273815001746108,-15.461363616753136,-77.12319592083533,4.057725777203739,3.3054225390346144,-1.1240698377512999,48.85870783415886,2.3435620169177542,55.92664498677505,0.48273306536421756,0.9400081687287386,0.8439354563726796,0.3336576097737908,-0.14857309093579182,0.14764430375729873,0.07969905176027396,0.07536543484748333
3.261243150684038,-5.155930453931013,-135.9321095928359,1.4344552096774477,3.1028923025094386,-6.85674117175145,48.85640518192306,2.345963064720115,57.2838375741948,0.9167574751499366,0.3420331260795394,0.10779865603380467,0.298316485398639,-0.01649635288809018,0.04680849212653822,0.1445930138108003,0.030742463247630004
6.703244774061133,-16.036185487796786,93.28287441033359,4.816472365702749,4.318507802258251,1.6303486100903903,48.85645234298648,2.3485684491134906,54.047795602506234,0.5007145834570635,0.795443646450351,0.6221585733150595,0.48079938961130153,-0.06410545743108317,0.16900861995025837,-0.101468737113308,0.08943217438171629
-4.823996254332606,-0.5190545838728831,34.397740946107206,-3.440359807817044,-1.139323166396251,-9.169883202481623,48.85404476675489,2.3420177659483157,93.58646860447058,0.14614119673729797,0.28252769219536134,0.5091840183649374,0.6619840760891694,0.02450364358258888,0.010174523831337327,-0.03229454392554147,-0.04082353429143005
-15.136140629930551,22.34793139551234,39.26382093161939,-2.032521668934806,0.5485224208594079,-1.4523489074089095,48.85413254323937,2.3454408513704847,77.28402617979928,0.5416075535156972,0.17177690664036083,0.9250743985207456,0.5067012017300206,0.14909427695554667,-0.2170145335522417,-0.03375401260813303,-0.003515300910200485
-8.641639280924306,12.723805284550245,-101.3506448329931,-1.3763234048296367,-4.013719762797541,1.8062765275068688,48.8530310769281,2.3508937737370923,66.39520111972544,0.38759928118672515,0.012192034742894875,0.47424984021309957,0.5275708259118541,0.09076138492471,-0.1155775450192792,0.10204251239970644,-0.05093835015024193
15.470766627862147,4.797718832106661,54.42062008575019,-1.7344218183268945,4.6531542571897315,9.142400605226172,48.85434358533292,2.344569961207809,50.033891495706996,0.6497740277169066,0.89542074760308,0.07689489357838353,0.06055845960707951,-0.15766783245790691,-0.05906422134275293,-0.04796309366591555,0.040700626942153956
-29.136390682214646,-24.65980932103922,95.56504100887105,-2.4800846985011935,4.851270692824999,-3.4707047243051985,48.85587125061407,2.3537256997080767,73.60124880454151,0.24135201897048542,0.44461870930863834,0.8893478923980775,0.8971080123747439,0.28116476709693994,0.24681190845701273,-0.09643166786731125,0.026353288911703326
-23.035641569585025,11.639526503356535,-51.16012893875185,-0.5653428424322211,2.890842479312017,5.301021930728886,48.851865890577066,2.3469534296419114,75.63866618476054,0.3222932448378215,0.28119495291569574,0.6011828635988001,0.1744153891477992,0.20399461320596957,-0.11782390562796832,0.047017564774592666,0.018068563023955535
-27.239841478694835,-20.01514294134361,108.4849718262164,1.4229812336937115,-0.45879016851663224,-7.346003721897414,48.85261683446918,2.3417958987261365,66.8283100045487,0.516575161374214,0.4031419077107524,0.6683117225502053,0.7220011351651293,0.2917510371773315,0.20338764960223546,-0.11294579128392856,-0.0038982315785649705
-27.55627186086179,17.182043157701877,-54.43538812847247,-1.8874307711330394,-0.03433249085642309,-1.3283529993200016,48.85494753936178,2.355290660497392,74.21623895215401,0.11828140090967065,0.7118515690856897,0.7200391001294499,0.30290364880809617,0.30215103092603596,-0.16873508371830429,0.05682616761498938,-0.03130436439725946
21.327635040660432,-14.996594489390809,92.92984614334358,-4.203000766857443,-0.6463306701214302,-5.537305402390624,48.85384780302026,2.351348326083539,55.03614065436892,0.2105054618595381,0.3932692324370829,0.8277955794198426,0.4700145550764335,-0.22368803750145744,0.13466963496738332,-0.09399568247440289,-0.048932489488350654
12.219471562801424,-4.977076300745946,-167.85716131522116,2.0853252689316335,-2.0668936347776956,-0.15064328247251524,48.8581948651349,2.3564973856547957,96.10308010205844,0.8013413180737076,0.2257309191708191,0.7387550266022019,0.007106694115118883,-0.11971248330490698,0.06215386672938532,0.16596148934569735,0.0004331035153114593
-1.5495702547604893,-8.971787860924326,18.419256530514957,-0.40983444218731346,0.277914055487666,-1.6553628226824308,48.858216870270766,2.347203032342597,62.917028471235376,0.9392194729372465,0.08779010918352892,0.2572665862940132,0.816352138444843,0.0108182939803823,0.08438896308037194,-0.014344049930462604,-0.02383329879784392
-24.12995036093991,21.52883488049141,169.02956183035917,0.5648230609006326,-4.465549304994331,9.595700999198268,48.85335992040831,2.3403875887074457,97.42490580902823,0.96953523810071,0.621725910206539,0.9580825137589165,0.9610031996134453,0.2513265195826621,-0.21338436793213394,-0.16276071551801669,-0.054412707678645804
-0.5030474929900599,-22.40733247719551,173.24805624566068,-0.44599342836084865,4.918870619371683,8.349959958412892,48.854507952800134,2.3409337698786556,74.64394056846052,0.9372616577444067,0.9726890134533822,0.14538337284396208,0.12339130198227344,0.0021311916329171143,0.22829886404714983,-0.1746215796161621,0.047538977305625923
-1.5916937531660587,3.938692943087318,-78.56907179697338,3.903575034549103,-0.7594986483585924,1.644117993320748,48.859765874980575,2.355908996437503,92.83624794278813,0.9420192876531325,0.6347945021082003,0.4143787561319442,0.19243880838950167,0.0128486697225246,-0.03962238733935235,0.07306098447927903,0.024842283599771683
-19.607887805399088,-21.476303433416266,-21.096327211072037,0.5874499716638004,4.273665840371063,-6.469804441697602,48.85827476083286,2.3482128242422555,78.86025995843585,0.8210924184739573,0.9468872014510215,0.5324325811165765,0.07232882314202471,0.1828226523318389,0.20342923539827243,0.02683665973978787,0.046511816051193484
-3.968901045721619,12.2877501679312,-157.3279531248121,4.232768398517496,2.2427146066000354,1.1391398284377203,48.85215660416473,2.359527714104436,92.22078633649804,0.7356145745562228,0.8780026649166831,0.05381277305087251,0.07891913616947532,0.032091473588619204,-0.12152662821390461,0.16670525129073488,0.0627645014272187
-6.089715936157592,24.304687667668873,134.40287073765592,0.1057534155600024,-2.1005708313606597,5.841645566475446,48.85280228977221,2.356606167427939,50.50691623491105,0.23183871368156195,0.15584020530212694,0.12467358630052405,0.549264684978895,0.06968749573847775,-0.24337385353517538,-0.1404938310972045,-0.03295198009478532
6.951005883132986,-3.923540767964795,24.68597513047709,-2.0741183775971814,-2.779473818253976,-9.239457760453861,48.85083480338242,2.340322437652881,59.32373582523654,0.4417302050230397,0.8790421609616678,0.18890920601583128,0.1638049175017624,-0.06353626444487537,0.03878962791020826,-0.027511225939740366,-0.053679737452908355
8.105619052058628,-0.7144643841014471,-41.36375558141387,-1.445574128238034,4.956754337623563,-1.3194130269035327,48.856778231426176,2.35739960400198,67.69524291251582,0.39796570022540134,0.0010907591150676188,0.8702000514689999,0.22146617237070432,-0.0823788697885428,0.004846357732548965,0.050960865503905536,0.038037288401038
-27.281759413677328,25.645370188965735,-139.40259894390488,0.22129293584785525,2.721263550540357,-9.147061703410909,48.85316895300034,2.3442573234775037,64.8066921421743,0.7303435022707628,0.5096408538087482,0.6014107529400949,0.45137904870991663,0.28651335525041705,-0.24971306918830696,0.13819688977832845,0.03363091262129482
-7.523243122411728,1.2594833189614292,160.83622277888009,0.29989437805008645,-2.503385258506591,-5.120841249041524,48.8553659518712,2.3497252985885804,97.33652200545157,0.4753863577624452,0.5227178845406268,0.10073728008683436,0.4806703045466624,0.06257536141921902,0.0035837691115786496,-0.150697268061888,-0.01960687613288889
7.55159494285418,-0.7440937170263453,10.87885721555773,1.8733770154894884,-4.325549518227394,-8.157706807981427,48.857681422819184,2.350122426958755,69.7335317929857,0.36017362157094124,0.7268250764163559,0.73283227560484,0.28765640766071754,-0.08694943560587862,0.025156586026301796,-0.011624641077203943,-0.008513517198367865
0.18817551480526262,4.699746162258251,-78.1459455301546,-2.755051278133692,1.9691654530137868,9.211565644501647,48.8583603506738,2.341194424043107,98.6056391574441,0.8140749592951195,0.7560218655313277,0.4562885625656016,0.9814102345566447,-0.0035724526187644783,-0.03941846480218893,0.08008457023770799,0.008224063257404308
21.389390471299336,11.353784181777115,-53.922553152656576,1.588428999655017,-1.9698354318892362,-6.623426944392897,48.85325364344074,2.342513312928442,82.55074593371226,0.7499063882472677,0.2316688300953319,0.15913272380157895,0.11332108373600835,-0.20396733091707242,-0.10679935167653096,0.04750526589606212,-0.0037243507388358926
9.5216178971367,-23.586997494778117,-82.54901486802683,2.7858800838075224,-2.7866918737228263,-6.997922353274961,48.85237246937074,2.348460948028508,91.77755363800921,0.36881721055931316,0.8820275507859123,0.5615036532414625,0.19147059372882325,-0.07889970468930929,0.22046117613111849,0.07208696330098671,-0.007925180076012454
-20.22393437511422,19.266631664490966,36.65153118851305,1.765919894669901,2.349374151493361,9.441099329419181,48.85848536372612,2.352852417531107,69.69276663777359,0.4193207475286359,0.17911201062308513,0.384660033930323,0.42917400420788954,0.17833931367985192,-0.19130274538780584,-0.0378990119080201,0.05231639980801316
-25.765875155974207,-3.869698352804445,154.7868872809836,-0.1817189018240919,1.7926132265434758,0.31934580606146845,48.85381270811593,2.3452883395468067,59.50381736675381,0.8931881848645973,0.9614812275472634,0.6483754796891911,0.29008913211647636,0.2511095171951341,0.043370227380571724,-0.15366029741673,0.0069134251995761915
8.545156692378939,-25.65908940615087,128.4097691975632,4.916806511168341,-0.18587325239808905,5.159700628090949,48.85821998140379,2.3505280193187734,52.52288244005357,0.7326785248894756,0.9851272113161745,0.9803163648824684,0.8329512231922287,-0.07275330564008334,0.23581170752756037,-0.12515407660331818,0.03919712485328666
-28.40932136750269,17.170960151892785,-14.262884846648092,-0.9518684087078375,4.426559327703732,-3.4537069766092987,48.85149763150642,2.347582707571907,82.82025528577724,0.6899825838265069,0.6968027818324574,0.7275843422408182,0.17684238211967562,0.27061683309038354,-0.15259316368551795,0.021593553957132083,0.030629251961550395
5.146534876407799,-7.383001698823676,117.53977042836283,-3.934093854201708,1.7963836605749108,0.6572141186971088,48.85911909410376,2.3526072701150493,98.58997748693824,0.7117036429285104,0.6486769968891387,0.5124893603152655,0.7144838333557108,-0.07327747307511284,0.07299588175191228,-0.11923592442539599,-0.010618272115025905
26.413814485497454,-23.977950294296765,-27.682026740521252,3.21504215407343,3.9341956061990917,-9.862925758445538,48.85483125657128,2.348488746025917,55.912854320550004,0.1023027759301034,0.9792030690217379,0.6126761128213778,0.12587221128782167,-0.26700436170830205,0.23114672956305723,0.02938441861998415,0.06546617632276036
4.5284506725527365,8.02674237259503,-89.16942932689031,-2.877987811195818,-3.0944705765028093,-1.8236305724516804,48.85170133390002,2.357032661998433,88.587710887783,0.5635015135272077,0.2420028215902802,0.7738663146287864,0.2679277669896264,-0.03359821760211294,-0.09061015756193348,0.08887583468321375,-0.044095786556813864
-6.709804427608685,22.8078812060185,174.02944149591406,2.1328557290244206,-2.033540899191113,1.101795728879079,48.85535068150263,2.3596748813709914,68.2306251642114,0.2910010882159817,0.6426602916789927,0.22997103400783614,0.7399462038587541,0.06910274987151105,-0.22559451710171652,-0.1783203614050795,0.018323911494208665
8.597293106541187,23.26521056483918,-70.60047553050414,-3.210237172848741,-3.9547986630627174,0.2882032699824748,48.85870015981929,2.3582610366504797,99.67314785088264,0.08483285673064489,0.40616674995510804,0.13527918894310587,0.08888292077604187,-0.07357080669727618,-0.22848580731433854,0.0716067805005041,-0.08911908248745717
-2.504826570509003,27.459808488538393,-63.459276844712974,-4.831226091420606,-1.9542000212796462,-1.8836062556648834,48.85389325068759,2.3433720847084363,93.50181287285568,0.7310670662535008,0.16757659514970102,0.5759718052843817,0.9076655056248616,0.04184710718216597,-0.26123416463738763,0.07258331281822539,-0.07751186069311944
2.737007358956099,22.06232758600128,176.289432403148,-3.402013962109743,4.717783292063803,5.758153274888933,48.85178061506965,2.349143553572475,61.538351473046646,0.3043353729385615,0.12777226673766828,0.7455932828938774,0.32140600436812394,-0.015232344608460022,-0.22937304142342516,-0.17173202414881186,0.022929770609086957
26.48788852659151,-29.871544839271486,-131.78610246036425,-1.2301130342417812,4.628562460923007,0.03281653307415766,48.855765561651616,2.3491763544131574,88.28782606620447,0.31005837104695566,0.7003747268665965,0.42232611149251187,0.33395723239402064,-0.25039605630483885,0.2981872308832443,0.13412544439638494,0.03192588266686508
