roll,pitch,yaw,ax,ay,az,lat,lon,alt,h1,h2,h3,h4,delta_h1,delta_h2,delta_h3,delta_h4
-45.1655572149495,-45.48930535198855,82.79939195638934,-1.892076977032727,0.6710384592725764,-11.082164056063032,48.84452086227313,2.3735691702879365,4.777314539951699,0.8619228423914882,0.3235613155630095,0.6314053533098106,0.25571381610013566,0.07659098134809028,-0.16877204976475016,-0.15577769842855674,0.04743013923321454
162.25715030756982,-60.151645356694814,-113.57568158446384,6.420926339509684,2.366470803135522,-13.986752682701592,48.82235717347882,2.3606048191176896,20.034366035309418,0.687944190842838,0.47962483110758825,0.4554857707076544,0.0,0.15527931642374693,0.03255090925301718,0.026827350904968073,-0.11396887283535717
83.51781905210584,-116.58459149897038,-55.20971002684098,4.997037241541687,-0.13169731789135616,-12.887672932028686,48.84380980134887,2.3198322478247366,11.361910585912957,0.49441362846024006,0.45276562279964017,0.5240829373598987,1.0,0.07494844716173782,-0.1598542878144202,-0.15251561236671468,0.09331990083110431
35.51705431093319,38.61600123653565,58.781029268814564,2.192806302304734,-3.631657937206631,-12.415614565357984,48.84737608863064,2.3670103941963556,6.313350012073672,0.6869041286899157,0.2593468136003044,0.5365658378094603,0.35474405016628097,0.06721588595505196,0.11830740491585423,-0.1320045861611342,-0.10130176103652128
-123.83328944072285,-8.415302216893593,-6.4478359711872315,-1.0292277922241946,2.0343470916561177,-12.812089884390396,48.895400768992054,2.3833766867512063,5.567443517351828,0.3644240651749594,0.2994379513505655,0.5656986090836557,0.2178472935205496,0.1702744015080348,-0.0517216239893139,0.11827878093980126,0.1531868400779594
-123.84197267896704,131.6523572366413,85.88557390856175,3.601888982939169,3.757726114328464,-8.434196528242428,48.856862370503606,2.372990904446015,10.975781779771925,0.5003114059099318,0.4317854812340144,0.9246238794246181,0.0,0.18334502887725607,0.189434571617542,0.09324347069288191,0.03602416495658728
-159.0898996194482,-168.44055102645902,166.0348444402295,-3.4003789171513756,0.9521226485059711,-3.4124739599784046,48.896987260534104,2.357485686287767,9.601009766593997,0.5204477771824967,0.33416662648462314,0.8109568227558519,0.3984124793080235,-0.11724708066829166,0.16008966109165745,-0.13839827401704505,-0.07154660585406655
131.82341247897665,51.792453919845485,-138.0431924225289,3.2297259457327776,1.4673730852798044,-11.332970225548774,48.85767126490246,2.371457683874974,9.316034486701772,0.3483107075388561,0.5644746316208081,0.20732336204163,0.610281860854047,-0.06862481097110659,0.006076978484101547,-0.0278449177320646,0.17751219462132023
36.40140422755516,94.66159626416203,75.44437790330193,2.7839206122601317,-3.704404159100353,-10.952824038427806,48.81449980156076,2.397688857313213,3.4488811439643383,0.32211167443763505,0.6118563564927259,0.5973890488401724,0.883320745574999,-0.1952670567591781,-0.05815282541079422,0.030357583386022707,-0.14645858526174405
74.90612800657638,93.41516490779054,-97.07610397243877,-0.4540372039478422,2.1205908994476785,-11.553747642459143,48.838437663822496,2.3010804341020528,9.191085991370413,0.12228520244236402,0.5906731301592785,0.18696183508594966,0.4241524737775368,-0.058023856581915334,0.19584395781909036,-0.06273508082463791,0.18576245826643317
-172.58958205351112,138.98662815438905,-30.788378133275074,3.417558940052316,4.038041468779047,-7.226969718111145,48.87923133259374,2.3663928618577525,14.133739513802848,0.3064915499023625,0.2812457197508033,0.7661775196851884,0.1363070812414563,0.08969449698499593,-0.056895017484599825,-0.06290520135852931,-0.17887755043038595
169.16754677831796,82.45214741861787,-168.16941871374968,-1.3416633883915496,1.2137564228143605,-8.520929418819858,48.8421622267875,2.379299258071107,6.225797735028825,0.8655787244830138,0.5667216616935241,0.7276511041506302,0.5866461568683335,0.1902266754043303,-0.1538184349271574,-0.057795351295283404,0.03292050068263008
119.67935068815183,154.0116221931707,-131.0733423746284,-3.795256794294701,-5.390349737630678,-9.849882266466494,48.80997338448416,2.363889152566042,11.281132845667068,0.1445971925484435,0.5718299068733689,0.35601743344973025,0.558146386693662,-0.19468557994712166,0.09482635461902922,0.07079904755890837,0.11760019066734662
-103.55792015582058,-60.24362406447908,-64.88017594239611,2.933895038999764,4.9068885023258435,-13.439334402650843,48.809607616058805,2.3273092096255605,15.59446277292554,0.49307923262263703,0.797244189941551,0.47350265692102506,0.3603242250196861,-0.15388352569288957,0.13155206383432855,-0.1419024338113987,0.10239058352722258
-114.54301180544378,1.155390030555509,-56.88511009632542,-0.2557287874183777,-2.834471680931292,-12.703287020743046,48.82370647560581,2.3822757396555025,13.150526177424807,0.530521069474876,0.8948786063517853,0.6749476871663181,0.4363778609516066,0.010116901406149209,-0.07040304893654634,-0.0118906135683782,0.07959728182030096
-113.97437645276382,-174.93132121815935,143.85067792635448,1.805341809896003,1.1633604806697342,-9.27411927332562,48.85647717836554,2.3913299114455753,3.9499641608385083,0.4500466953979102,0.7480335194329087,0.4643541277542439,0.530808207947434,-0.15642532128334988,-0.08918819110730816,0.07779306614948456,-0.1886379624299368
-70.47279253456642,-177.49526857081517,87.05264733594544,5.462659774678219,2.858928805682755,-9.130138128728195,48.88301549770997,2.3683504731773173,11.606719268655448,0.6748722339025399,0.40846177289049496,0.38848070007563695,0.6612010736805178,-0.17997658300883318,-0.028536244438644415,0.08951727555237865,-0.07316417347916435
8.912315387605616,-93.55441663745285,169.9858685473348,-2.1667622171888903,3.238854966152983,-9.848327875897192,48.85337127488369,2.3511024205072006,17.324562176302493,0.44498972576341733,0.3456367288595209,0.5089654779170268,0.6111024357169466,-0.022530856157654405,-0.12060284510073488,-0.12641672493880685,-0.0761186156742284
-24.499793288838333,-143.7094090299293,35.66574372068658,-0.4301385145199259,-5.400170435339537,-7.80521861821909,48.874608038667276,2.336632087785963,12.486268815816441,0.6906966322164079,0.45982926139030034,0.7801564174467699,0.5530119532577996,0.08754425846397529,0.1572555865261131,-0.14785671124727484,-0.17250043350849997
-75.1575095287049,-86.3239075431287,-92.98305644712553,4.7089035137331425,0.3516517682188133,-13.467732108926025,48.86455931035555,2.3330056757956648,15.901096423119869,0.6098244929649699,0.3856406718438279,0.19496111884778544,0.509782177948038,-0.06589131543892487,0.14142789861953858,0.15013092630947322,0.10453695088425852
40.267042100056614,-116.26441396977694,-62.044189228208566,2.0061951925658503,0.15306483264782664,-8.889230368520115,48.852409918514304,2.372322764547444,14.900698529599063,0.22934381209217541,0.9188047516936054,0.3301841933270502,0.888487448129188,-0.11813328516687194,0.08226819458125523,-0.0574055475178987,-0.10639222698364481
-129.78221016526493,-169.73279105808663,-64.85906761489186,-2.0993482326137887,4.3170845631795345,-9.056041033709853,48.8214807927292,2.360712339222194,4.3085538452037735,0.7323102359727711,0.6910994345284176,0.38048412685334276,0.6087427208120388,-0.06167920306487126,0.13043603866542158,-0.075906492746851,0.18395746764320753
-74.82792652732147,147.34949270617778,-62.462042041229424,-2.865053110618436,1.3761706272318888,-12.673817656010236,48.88831685396886,2.3156850573322005,18.901137475700192,0.43724424236988274,0.6245898225425439,0.8728445487881653,0.7218142057681556,-0.14785312363494674,-0.09939688542001712,0.10333318053825541,0.06370156570635405
-48.109736414271,-177.03967269999904,62.26710232025363,-1.584241920310037,4.34435298313488,-11.614699164807359,48.82757153971469,2.314109664555829,16.26887338413848,0.14177652165559645,0.6606489460967417,0.7703386455734643,0.6752990435027344,-0.05793600079217312,-0.008744550985023108,0.007838051040901517,0.05257262940117885
-15.814805681867057,84.98957196135075,11.090854112549835,-2.215244114408635,1.6197527996554606,-7.720611572931579,48.82528199299554,2.3071099203668717,8.584753942230408,0.5942592127263855,0.7742111958719298,0.3222152476604885,0.5706814515357137,-0.002698420767599602,-0.05352160198791883,0.037870545977877285,-0.16231143253274044
102.66334610148488,-125.22676070897404,-41.247295888808054,0.7120443584685925,-0.22249861368365184,-13.215774944450231,48.82577976245042,2.368351191901557,16.47922421049408,0.4425907438553874,0.6236399955261924,0.48214075966280917,0.7980308100188997,-0.1705291210233627,0.12959817839314713,0.01406180284955641,-0.11777345942132511
-108.11743842299049,148.40266391985602,-126.32768325766202,0.23530352159279885,0.5815782646144781,-2.4086867902381037,48.80956854483579,2.331436437101005,9.361083688447062,0.8257350742617436,0.4617831607413998,0.6747783817803094,0.3482006630662716,0.01944070087262681,-0.14066796971259052,0.07729578715651803,-0.06615720780786147
5.124397828900186,141.40653825235887,-172.02990134082748,0.837713262826054,4.570790751307388,-8.132715197324742,48.84986540409046,2.3020242468970085,9.553392617963896,0.7191206656203367,0.6484124763673476,0.6630583215300981,0.6652451067412661,0.0036751122782848478,-0.12427196525422263,-0.16249299834585035,-0.0902653858191591
33.26924479033528,55.40441269293265,-101.21951606843066,-2.522438404679347,-3.8907955065037467,-9.972010431944168,48.83275302877095,2.33376927357092,5.530766463780427,0.31954656930816394,0.646733951081402,0.5278091256328198,0.23676738020950433,-0.03563025266509476,0.0463312418342654,-0.00044852150411611724,-0.07847758095710416
-163.27785142080083,62.00429392821786,-141.31029457127474,-0.21250172257576538,2.717863530361597,-10.55645700311473,48.852194198106154,2.383211665198354,4.826073589981847,0.689797367279692,0.27656518772607086,0.5079975415812584,0.5131925465743334,0.04874717939688167,-0.04596956878328498,-0.05437278755639982,-0.08495399422966612
38.71614668451781,-178.0779088909121,102.7602111068062,-6.167099321868649,-1.8828479736623611,-7.435395504074149,48.845311538113926,2.32476625301907,10.746393588154971,0.3607941284925481,0.9801558134079618,0.8945200577185857,0.11393332461278766,0.17353757351360066,-0.1405152979784491,-0.09983389502664784,0.08283032304039961
-118.61131547257506,174.55376380089672,-139.50073518700125,0.43501895208409935,-2.5274372527461098,-11.034048594789029,48.851979180581665,2.3633549394660682,8.733599757050982,0.16858652124445955,0.37729462716880474,0.4724127059729946,0.24826223984293305,-0.06978485743060162,-0.15646250263356093,-0.17821094978987936,0.06404146754954881
-156.58142652529938,136.0197372872932,80.72216543046102,3.5263219348675956,3.0702790998485194,-10.910948774033187,48.82976533518877,2.343967118294132,2.5640962263343567,0.3770840918895541,0.8084617842070436,0.1819098172979119,0.41549364471422173,-0.14681966114309006,-0.010587492504457618,0.13833558074491464,-0.19704831530236913
161.59879341119995,142.23824126283313,-41.16287168061024,-4.274237728038541,-2.649261765032981,-5.44223517564885,48.88151381130261,2.354889588686407,11.750777485681875,0.23417815617029508,0.4678854945129692,0.5331851290251447,0.8640444689450917,0.09582209389539731,0.09543230668261826,-0.03270702453748578,-0.12683653086654792
167.62753190684134,57.3280333383139,-153.58377969224065,1.4502846919423835,1.1312241507759746,-11.214676984596306,48.85341930009163,2.3595772707663047,12.552610812260532,0.4972696626535379,0.7317631256808695,0.5602216662400633,0.46701918361956185,-0.09992636643083737,-0.1787492788907822,0.1802579689974403,0.10398558530580354
111.02304532192602,-55.876705684366854,112.58281779537089,-1.8330430552816894,-1.4668242664792948,-9.391755954483816,48.820843466895894,2.345481098079611,11.495132158391032,0.8861077735562768,0.5107631191018223,0.47911899385473267,0.6470744491934809,0.08981903905356525,0.09663341016146765,-0.05719352908251629,0.02085865677325463
-70.33904309758655,141.71351367257307,28.667005285180807,2.407503461080108,-7.07081008768942,-12.08063622784107,48.890180370025085,2.305785584190718,11.451371065336016,0.515741534295065,0.211343184446251,0.250049447166765,0.8017766656155222,-0.08915139525588432,0.04567673546202297,0.11124974912077173,-0.07193142463311628
-144.8380389577018,-75.05390586557075,-95.12585536911371,0.47594235363683635,1.4331479403130465,-9.022878567536875,48.810945510083364,2.35676954169297,12.039037233145248,0.5922814965382701,0.7138355357703435,0.5762579213016039,0.45550821951513554,-0.15405051992967922,-0.06805629353241835,-0.05777057881430109,0.1440013377393894
66.32388954437647,22.57615560319303,142.08522275976043,1.2141123379813223,0.37896381887036873,-8.058156696679838,48.87334344809016,2.3397524812377504,10.832636936132335,0.29936932097362856,0.7946774844641408,0.30576708148246634,0.8445538528244165,0.19994084534872492,-0.18783154347515396,0.13427963152724492,-0.00033971746056801755
-21.545102253743522,-144.09684995620233,-163.7070070066015,0.19447169626632135,-5.730241543244455,-4.7513134724245445,48.867844840477076,2.319987990548539,11.745898405342164,0.39193099933896575,0.4985762544450446,0.500297081716957,0.49215860822464086,0.012079942130805016,0.1878775818563176,0.0978382036312006,0.021132083146957387
-136.06623545587962,151.90402684779008,-107.34494104880535,3.9849954191530585,-2.0957686246165856,-12.612046669917826,48.80728589225702,2.3896508204518936,12.528251667501891,0.6090517461710285,0.671593055433404,0.4052178948145605,0.29459863706249045,0.09742809083980952,-0.04946274071935991,-0.18411202464679952,0.1003703770183258
-1.7363123599427297,-129.3226352023632,90.73689401010995,1.042231433085307,-5.420976350136914,-14.14362261288564,48.89015076153454,2.3736067188546186,7.0730247014932175,0.4862836707155858,0.361410708168901,0.7000385588931004,0.7203572696052397,-0.0432770219459504,0.17355010996567322,0.007583998742949433,-0.001104211057906701
-167.62013239852138,-99.03714993705339,75.37605491156009,-2.1162711420073537,2.195069661889239,-10.600371811346088,48.831631242178176,2.3284068247372414,3.669704806491424,0.35585176208444713,0.512604823700763,0.1879873182176588,0.6255521331425984,0.1631622807779931,0.009883171030947102,-0.13840484976529357,-0.14130003472236552
147.35534474836152,20.9282969261574,-75.86219025918791,0.2961451569630108,4.1639796081302896,-11.651341972058255,48.87408950156146,2.3538957175930455,11.596260479379406,0.7005604350850225,0.7217634559696643,0.26767907824983306,0.44038066610472043,0.1308659427896086,0.02740171759013829,0.11930325827038396,-0.1339215034306426
-86.8392066239939,95.07348007667338,-157.67104487299807,-1.106643128898148,2.5484718151385573,-9.846341115662279,48.82770015858508,2.396311317072597,10.757217788650589,0.5280956798805129,0.5764500126228709,0.5135778465036904,0.30876420629066714,0.13200633711604287,-0.06817571698577721,0.16479666873338417,0.12938409806383294
58.50802236743351,42.96647013706763,128.90810600097979,0.4871997195587674,2.9673904704002747,-8.234035022405635,48.85256917431475,2.3245461571924464,12.265149387865675,0.9110121638493746,0.6023868311464107,0.5009542813202742,0.7016259246176069,0.11924311457381648,-0.037785448382382236,-0.08324641808282363,0.11551839313519696
-67.78401260781206,-96.43179139194378,-67.06885029483507,-1.2593091371004381,-1.5534912170004425,-3.004930772529379,48.897233361381204,2.3947384479589435,15.691228165665082,0.6318616047395891,0.7053660639257671,0.4533788599752249,0.2781265536059938,0.03304464302363094,0.06395108966394214,0.007328051970031169,-0.19286906434905698
7.224487624011886,-179.6605046901035,-109.54317062582452,-2.030432206638944,1.6407840333311232,-11.154456071763333,48.861077640986814,2.3683361345153062,9.827372163315777,0.2730702020883601,0.8374238114264346,0.5689512068159834,0.06631996217663882,-0.0072325314185928136,-0.013075033280362719,0.07051101740437565,0.023341489360400786
16.815700563580663,92.57420891067812,5.782256049951741,0.5978166382453375,-0.027205890426481864,-16.431211062658814,48.82963227614604,2.3540836646950756,9.334544364614782,0.5231310882583475,0.7263282981554666,0.5370134581175091,0.7328821221138095,0.06088706989244913,-0.04199535054608722,0.14807885617408106,-0.036911976100949484
-113.45239601081026,174.67463732799376,147.68179174168102,0.16736888584966084,0.5559435482664585,-10.513929948523106,48.84583771464077,2.398320769251822,12.341642267125469,0.259208030998075,0.5663481263133088,0.6788227647773242,0.6765734001957956,-0.09016549847638333,-0.18844439360341522,-0.02270279435369335,-0.156197740979366
169.0504659952411,111.56872331019252,-164.32323197638487,3.1918675351375425,2.8722943813635675,-8.748417005830111,48.86760411510815,2.333370886142743,4.897535051344899,0.9009954524808701,0.4970566127062435,0.5310977636197219,0.6361296884952281,0.015490877101243944,-0.052401031521528696,0.16850148105702395,-0.0022190238697494258
99.04781641000125,-14.325617463618471,95.68947169111959,-1.2448676373984389,3.5264622619417083,-12.708892220181243,48.8445188895516,2.327823118743662,10.20925918545376,0.30222274549585004,0.5384115311665518,0.8489745131174522,0.44409072501796265,0.07185206214940176,-0.12370731615187354,0.1369507898767599,0.17610867183982265
158.21961896310808,145.35621410367838,26.09036205793521,-5.9425615424859215,-1.1692691689155472,-9.09895264125615,48.891074856236536,2.3339593275058554,9.488666062430301,0.7228314500169989,0.24321596629651326,0.2827563393229071,0.6369278260315632,-0.16332910739755505,0.17239171927560498,0.11189718132285381,-0.01045945265375603
142.1378461539536,-32.45483767739398,-26.8383180413459,-1.0916123953899386,-4.222934434065147,-9.38755539396528,48.88674607363965,2.3750858401901875,14.382555563039885,0.6908570721279444,0.5535908258072918,0.8230237135367593,0.3492010117742899,0.10244443985366802,-0.09732955077345595,-0.14221492905701993,0.04476104675324791
35.24399237199066,8.976270327648308,87.86895987782162,-4.879292276749731,-0.5622136040785688,-9.020444768003243,48.81468101769605,2.3337006547418886,7.707335377624554,0.3634971396105623,0.27102924913156357,0.505593413952485,0.5359474566621475,-0.010712366715015076,-0.17544018092381483,0.018971097672744047,0.1662175272261227
151.87472460832208,-8.233283737554018,167.69679279898764,1.2470159222897284,-0.6578198559416526,-7.426034137610428,48.87849408940634,2.3102762356533897,10.454531986228302,0.5656811481720786,0.4251877621666478,0.135544807099242,0.8557700782202107,0.1802031554148495,-0.13328824742406975,0.08257281917186982,-0.11428951700815554
-148.142699261309,-18.85540584041101,-97.48576398143123,-5.021693785046363,0.8537936400424689,-10.04807385301001,48.89424149119588,2.3644312096448425,9.222000296502413,0.5511645157859748,0.6500440066506303,0.017195227470609586,0.49355754413747066,0.1798308852563601,-0.14908118670072754,-0.1956461883011436,-0.025461262900385723
-109.44616952910773,99.06867694580609,-128.28694857403696,-2.9651131872423044,2.4989877553923683,-8.157387030481523,48.831690822437494,2.3222983600232774,-2.437116176150905,0.6665451109214644,0.4212891727576713,0.38648469004898056,0.5948716667007501,0.13728778664306968,-0.1284387558382702,0.09020413777132269,-0.10362484239589734
-163.71817599220628,9.636806617017129,148.63742828017092,-1.0870033748245889,-5.743745896452172,-15.19688344169095,48.823821971395446,2.3004163070326604,7.359921042424109,0.535396143561346,0.7817918357826352,0.6368911263478975,0.23297713820867977,-0.030218747093573223,-0.10326048737394244,-0.023505471181736792,0.1969325163667982
-62.881080925224836,-65.98183607092221,60.82310788462934,4.631851814283435,-2.0127406535744274,-12.687137875378,48.80095887463069,2.319915743673389,9.95773553639656,0.3663837960386531,0.491928334363388,0.6820163630566306,0.4050231838435868,0.08808735964286585,0.1812973445770707,0.13458874417392114,-0.1913075266920482
-40.076175711786476,-87.0630596429478,-22.325032237692255,-3.2186703471447524,-2.891664567952321,-10.824602992778178,48.81156574355447,2.381914542894368,5.542698215692395,0.6121549477560813,0.7408300685639035,0.32050260916024376,0.455560967721924,-0.11106884794717531,0.10628662685857443,0.05536299969459313,0.13996022699723154
-82.31434856139747,-166.41096589172398,26.37344529514192,0.0372149494397586,3.7526813660753726,-12.815387420048832,48.89609130709582,2.394024810558192,9.388651990869821,0.6128360452373744,0.44474864639833744,0.3737475000331168,0.7208475775803751,-0.0844791127291516,-0.10998793606179486,-0.18223254581062878,-0.037123111257885755
118.34550329469454,29.950258277896552,88.42100586344787,1.739929730871777,-0.6251126800571626,-9.780211993665219,48.83911216277375,2.3661952797343866,16.694360200817783,0.3137793604939545,0.4785103795689466,0.7402107928416151,0.9124374511400095,0.03091938439137265,0.0711336810519963,-0.06689808336827438,0.1918410806035456
-51.568802390307866,-97.21389045562769,98.29148353405822,4.4521816596620924,-1.5386507086853642,-10.831229892732212,48.838734153945865,2.3310489784024084,14.816267999975526,0.03892290540981874,0.730668999702411,0.182907870853662,0.5685796065570627,0.09553856229953583,0.058023933807752504,-0.18753658790389383,-0.012995976425550643
-78.86357651254292,-126.6717880741021,151.16190509482726,2.3333842551642294,1.6149050773397333,-11.165401968736939,48.826667891799474,2.3436497346903176,0.6699223739397766,0.6183105410584789,0.46457426679045316,0.3431604261288361,0.15458266216845373,-0.025393727276895373,-0.06911749973067144,-0.19684577301912662,0.054251671077980845
15.370589936969452,55.378786977963955,-26.33659599757584,3.281720854897396,-1.779019052748068,-7.148585609321078,48.816405891068406,2.3194548740940872,13.7979538595565,0.5746684799556003,0.5749258169798331,0.632046177280005,0.26418800537137976,0.11547224953029667,-0.05188238353579319,0.19195500213147249,0.027620276722702897
-129.26727900908546,65.23533281575757,-74.3720723930178,2.592921176554624,-0.04558433039054762,-9.548534626056133,48.850879019094826,2.3880777923384446,12.808749842656358,0.5863603974087261,0.4150083998529378,0.3473171019352669,0.7318576902565332,0.05475530133784973,0.16072219474012006,-0.09505503542194638,-0.15723959885862
108.79091307145427,90.77576121275973,50.27913604434309,-3.627368914188417,5.442213600336078,-13.05112970797268,48.87231876565842,2.366558156279039,9.533682832980071,0.7638027600889555,0.04121645137756835,0.5662707377781749,0.360248755977762,-0.07338629231815666,-0.0076870159620179845,-0.13662767896111752,0.179705251844946
-153.1617682752825,1.2876826818929317,-30.337956259369065,1.0790763129511403,5.358870971659931,-11.60996715403671,48.85507953336011,2.3084412597377364,-1.7238424228051468,0.6752193048045207,0.38060323996502887,0.44227258771686845,0.6556581956143925,-0.08788650894239095,0.177148000448774,0.14901985614888363,0.050575303803249705
175.27929717618622,141.85965787339916,34.05544342163205,2.5459828565166682,-1.222152969188457,-7.540338749182237,48.803545023695186,2.3366933683636266,13.91342237943914,0.7586732145352998,0.7924300945022291,0.381825612450423,0.5716145101775767,0.1155438303449649,-0.1269329714312412,-0.07642476278977713,-0.08588081039064269
98.00811694679669,157.083391223362,-28.80511255585793,-2.8695008690220596,-0.5470854064787326,-9.200871931343071,48.88034696409637,2.3538022596794725,7.853810995523075,0.6566087448937005,0.567099396430044,0.3061290171687408,0.509010923981174,-0.08007842421676221,-0.1851257229108498,-0.08233896856791843,-0.06738182126139844
-108.46235464769794,110.65353832529621,-124.92151679585719,-1.7392796301720679,-1.8570855021924162,-6.212179505946596,48.89315941516943,2.3797330081000476,11.054210204016483,0.5287901751178052,0.6787347366514982,0.3911872213630487,0.5556808692498019,-0.1148045123986735,-0.0032014962873185837,0.1539872952276301,-0.1871766958290357
-178.01203783550312,48.81365352294739,-11.006369402774965,-2.4095768853811688,-5.77759582512051,-7.260301267683616,48.84403767408074,2.3920504600796093,5.160757785467086,0.25408195818682056,0.6859499360789979,0.957863453529366,0.5365532260232346,0.09175158285517998,0.03581330290265053,0.03062426580914898,-0.11251403989384468
113.56611424374029,-70.66045670717207,68.73041589877181,2.3178689579040994,3.108568035290154,-10.967200786695063,48.83664645527996,2.313267342329193,6.288713361729976,0.8082386341744601,0.6558292929471026,0.3730898749939897,0.23529154811027359,-0.17409677118663575,0.008028747196473146,-0.11631364027837435,-0.029529338739746974
74.46864378514215,173.8601717832796,107.74217076035393,-0.20784336098739598,7.264026350015293,-5.493474653275525,48.8229854010556,2.3834555560191135,14.681123964455914,0.4580854580784004,0.8190427952251589,0.5411225731377203,0.44304729838981316,-0.11530211357270184,0.060386414276338896,-0.08403082352195682,-0.09594009735547658
82.44258049475542,-81.3109798109022,-2.4025403532431255,-0.9625376830052911,-1.330348312952319,-5.246554027402231,48.830187029983726,2.306578377686242,18.113410581404764,0.37882276740070664,0.4363073195403634,0.5868077171402303,0.9271266399122573,0.13940326931727987,-0.05845666490742013,-0.16132608313236868,-0.1196775146446088
97.6573248069405,-107.04350808344482,-120.51435952425567,-3.845009749958963,-2.450381181867815,-15.156258671953516,48.864444750758985,2.324049047083658,7.864932145945762,0.6274121348620723,0.797041338159387,1.0,0.2798527148864228,0.017094829147889706,-0.14617866318522232,0.06335821439901235,0.046649469587331904
-153.34392537572748,-20.824519036830196,-30.712424526204643,-0.20218275958137727,-0.8185403890200196,-9.704657539724188,48.87701461278628,2.3021012292085596,17.564285125986345,0.13286923818453522,0.6341596295080211,0.8097465206368497,0.27391918141786653,0.01729605185924038,-0.0880071854718386,-0.13011362186842268,0.026587941970915685
-50.95233772406186,-159.53739454354016,103.06581438301134,-1.7027650649542472,0.25513814348575575,-11.449518471428089,48.83322157363473,2.3063828384281617,7.855548734932421,0.35219688875847766,0.5890938755879269,0.16255702710720193,0.4097006928366259,0.1432114701834436,-0.1710148770235378,-0.027368363492546066,0.15632448111977454
-138.2871385709533,172.2580072818447,-31.37066257785378,0.730018695792487,-3.4065903306206415,-10.58142739885263,48.833967262337794,2.303242018486196,7.795481574482659,0.3741519881107287,0.08880634433203127,0.6184203673206667,0.8789327059619553,0.12496695352741344,-0.17187927031175387,0.06177114213217938,0.007693788422221015
130.71723331521366,31.836080309912944,70.75108569752004,-3.4289015959363525,-1.3754353829523942,-12.24845241521464,48.84511013197024,2.3146007859949176,2.910910597011135,0.3684401830342938,0.5803554333936963,0.6572033691591752,0.3187149635691152,0.1142834280017293,-0.04978827231517843,-0.021703951489012885,0.02094276472192927
44.387325657920854,20.50275299910308,2.596925404112312,0.5337187785186018,3.0446917618140557,-12.624262646829427,48.81702027765197,2.3876528075296375,12.48660994063506,0.8870421272876323,0.6835211628752256,0.7508407980133476,0.40280061827487357,-0.05786102460592324,0.15881768937851498,-0.01846382634412383,-0.09845910098100102
-60.87671105304629,56.08666076389915,-93.1596749606172,-1.316852311496462,0.3821419034018145,-7.096480281403253,48.89272081881771,2.3283826587346286,9.02298870795759,0.48353400935088775,0.5465717923404202,0.2017049795290088,0.2966681928839649,-0.12073995050428238,-0.002420963561535261,0.16323728923225345,0.1599294426754112
-157.1189938970315,-1.071486800205605,106.61418288830674,-3.7478907772054395,3.81115808438694,-13.304184678700304,48.87054560684534,2.347971534450566,9.304882761814989,0.37222292463677853,0.7501003133276538,0.48809552671250506,0.3955942226730503,0.0184242498576411,-0.13220229283121143,0.12228276168056434,0.18858265565416465
-68.0463641823616,-168.45713384596502,-149.68315653455267,-3.9818521136344405,1.0943035585845053,-9.519936299779934,48.84335834282744,2.348711636821817,8.101954654809171,0.4903357345363588,0.7591023318880477,0.4269714662512478,0.4442020343197245,0.021964818904188194,-0.055538164730301987,-0.050960844928921695,-0.005777625380748136
-62.93400407037106,40.43206398254284,8.960501791854227,-3.5310611640680825,-3.266751806318756,-13.847411269115481,48.812227251188894,2.3995262933571073,5.04136028164346,0.6707408645742996,0.44426301762928133,0.5846368115236411,0.5985134194077012,-0.18147319263308057,0.19106975782965346,0.04031060089103841,-0.17059060806179815
82.65822420170309,77.822595704315,-104.79922767237423,-0.6191971723216265,-1.7280419301592778,-5.991782564194682,48.88488255482247,2.336467291072477,13.128269764372352,0.1187530261805585,0.521881774584616,0.4185371149678798,0.17437337448651496,-0.03200094234869297,-0.18758495820948254,-0.030509081018842255,-0.09109885591476777
49.52068968787671,-29.970338175340856,-155.85637372510476,0.3629863030905012,0.7452361906634447,-9.709898435849649,48.84837143449768,2.3265099328266805,9.693261839370214,0.5228836508263653,0.4469129137940065,0.4302825662143364,0.5493797865731699,0.014924811799235937,0.040649938304240296,0.055230919934859846,-0.19569702355287846
139.39658732747756,92.62640594562947,1.056217349969586,0.8094708971315436,-3.3677678278833225,-7.564123445960723,48.879688288405234,2.396324469983224,14.040035602003506,0.4094095485511261,0.41565503311611063,0.21829563104968996,0.30290551623964945,-0.0054577219125424015,0.04410081974888508,0.16316844678357695,-0.12463085473584573
-10.002626941698253,-98.27953223816858,-0.1576238634275171,0.9226587531853429,-3.7569591987318196,-9.214682656399916,48.80333940872508,2.3592525647097338,5.279237633773141,0.553911951545986,0.5198790981369408,0.6496740340266086,0.5893752580448033,0.19309147163860135,0.1526058338052413,0.026484240891714028,-0.19474138340787125
-136.9460714622114,-100.34042721617375,74.4843246032595,-2.275569782937601,-3.576601660097176,-10.559732471724534,48.82736540962819,2.328948143893704,11.195336984941925,0.2708310273075486,0.5468984155348514,0.46954944144595706,0.2017320666868087,-0.11522605988646176,-0.0335541015131203,-0.14363543969003995,0.058133720467303696
76.76812340027823,-121.88988443247338,88.11024949868573,3.1752087242855267,1.5474131634414472,-9.594887297254887,48.86220953766914,2.3287485936622967,20.68530437339689,0.46404002009029516,0.08191511964758574,0.4418112989643393,0.4444121354342294,-0.13703028116129706,-0.03140425954069653,0.13612025740794853,0.13147966015388768
93.88261750208306,-46.08188647590174,82.00493592944287,-1.326676578024459,-1.0987200462676137,-5.277999741440691,48.84879233212276,2.3086362708310824,6.443829363038036,0.4726796450110336,0.49213404572958275,0.438879780400276,0.3158835737262043,0.15289737679297039,0.1876251111160031,0.09274518981903629,0.1472070382860619
22.05979112501865,124.9243327400701,-32.55885614996819,1.350449280179196,3.5473248932788417,-12.492279982696424,48.82950719779766,2.355686863779268,7.577119085578123,0.24588639548689045,0.5809960110141897,0.41802752944129973,0.5205178054524168,0.1744644712298175,-0.19041649990870388,-0.1290532974378754,-0.09575110605256253
97.54818478364194,118.04834237366316,47.40832340156251,-0.49246630048145046,-2.68926114883991,-17.44804682735507,48.82011302374758,2.372368788505268,7.518234916643014,0.8728666898140154,0.5259465641091319,0.6808264663902929,0.8146761796327449,0.14419821540650068,0.042976833650914065,0.050188267711287926,0.02049073754639666
-2.233585308819329,-42.18328513313864,27.700287351825693,1.1268636951091247,-7.372200803861545,-12.160594143534631,48.830181332915046,2.347471379792323,4.787199128776533,0.5829796067174378,0.4858726083604563,0.6016526734161387,0.6187105456056662,0.1599743624284184,0.0807076867814916,0.16453319363461533,0.08072323824784988
8.183818577517854,32.08274495288515,-28.23776779790896,-0.6429841984347413,-0.39211535640964557,-13.427262391014178,48.87423394008768,2.388443688372703,18.28824478577413,0.684253840710762,0.29781675424038134,0.09714170851141146,0.62491300127156,-0.0007029142560385782,-0.16355345738272786,0.1597171360323581,0.09124236195804947
-26.085233390922127,79.49387393096964,34.996569906957546,1.1809046297236994,4.942665091181461,-6.895956606503216,48.81837073505013,2.3483964783881714,-1.5179892370135768,0.42920065093006454,0.23874122133955566,0.20002965427348257,0.4857721895130612,0.15456271155821616,0.08542920616985444,0.1939751163503331,-0.18555978477361365
-170.84911437212574,-93.16556113391172,161.00923561425452,-0.02216660964097077,0.10370825084581772,-10.32718788747405,48.85938132076422,2.3346358337880315,3.8866812564422375,0.5429453510724289,0.39358585120972106,0.128808248026395,0.4607833755223606,-0.001118930057329548,0.06385122227482432,0.07329001168754934,-0.10922753111989976
-141.15908628241039,-119.46920907789105,-110.55825227470416,2.441521711952067,-4.116279729398608,-7.317646747851702,48.84236808334327,2.3250782849751594,12.340244890387591,0.25963969262873265,0.13753691341675622,0.01239496379837185,0.4719536021819752,-0.044812892083304356,-0.1934601453543235,0.1899747351994276,-0.04821570236746936
-168.68549315277568,169.95455755643195,146.0779544827895,-2.4560551296335946,-4.872829788620238,-9.704325253590996,48.876303790386075,2.3243293326352674,6.348680300202485,0.3719757764231876,0.4913737262949144,0.726595906794114,0.44969564208546414,-0.1279665334470837,0.13999469613150478,-0.16230302808346503,-0.09215765410167426
49.10774805496095,42.32063275546267,-160.75601496604858,-5.309674007671735,3.5937057417704708,-9.773971874523292,48.82016185226189,2.331651396717253,9.847582831695714,0.32022798759608767,0.33163402103141615,0.6393114189368247,0.37506532399989767,0.10541129681021061,0.054761600153695744,-0.11404110948844522,0.11195625590599423
-66.8318468125224,173.30965986011898,-68.97988335540217,-2.92007225830229,-2.4223103143257343,-9.308165140019925,48.827008957623676,2.3991974899880333,9.85605049963692,0.5593038814550034,0.5403343234032478,0.8092259177653718,0.3532980533559741,0.036749622403891596,0.17067502746790125,0.009969465791061033,-0.1392878474585788
3.085448819292992,-58.40784463239753,-76.26771049984984,3.2067552457141013,4.62538598296959,-5.35992714260094,48.839868753190885,2.3360826525544462,12.485304948621925,0.8413935099241847,0.3878105061278472,0.4316156413171313,0.34960050900465756,-0.054082007783227776,0.05061614128386771,-0.050784191323046596,0.16773532882996295
146.72393061339346,73.09141199068733,45.491438837126054,-0.4636764596632188,1.9622803465538508,-9.240417276718157,48.8166575608706,2.352459989537823,10.409395690966637,0.6806908098161841,0.1110365153969814,0.687131848702613,0.4425673762254849,-0.18834769279772737,-0.03000772752226402,-0.17567881629162843,0.1437730487330568
-90.25479750640503,-99.86269084515442,-132.75901736017548,0.27618688663968705,-2.3087061432140548,-6.472490450659706,48.84611947721447,2.3274675132036795,8.056461672337234,0.8623488669389494,0.30373797571193034,0.6049081677499192,0.3094422171827378,0.06835493703231937,0.04648395978784953,-0.14950511977348177,0.007029638421930523
-32.262147707173284,-85.96793834139135,137.64514026231137,-3.1609098421391613,3.5014105329349228,-6.664508394748467,48.841605080815015,2.3143535864346023,10.647141108688079,0.6587572249117194,0.5372683238987749,0.10759099996051358,0.5410163092516764,0.08058289801473273,0.14533759114977512,-0.07143311239792002,0.1289907096409154
91.99840987549754,4.284763657064644,118.27850704741485,0.1966611754508355,-2.771691459789807,-10.289874744247468,48.89900855442807,2.36458334401591,9.107586774926263,0.5840433234496948,0.6559313936655468,0.7241348648617439,0.19675603965086652,-0.16888851273024078,-0.031470409785854775,0.12763955296631163,-0.046591976610419084
-97.63266042301592,-64.93747481709435,54.7436950867,-3.068437932218089,-4.342011337334994,-10.021803550406187,48.85938637092781,2.3545220041155495,18.472464371563373,0.3155112912692123,0.445330258965433,0.40465298712710884,0.5709486894503905,0.02862185505388498,-0.030868630056349794,0.16035506129318433,-0.1335738640735435
-152.28723246163452,-119.6562370173896,-14.971020554808803,-2.627343825158265,-2.6002361800333365,-10.933407997499833,48.80694620251071,2.306782638749739,7.1218392579775855,0.5646629451764317,0.550336575105943,0.5863248796249625,0.4951727284839644,-0.04680579582117028,-0.1586041389470151,0.1558359354372965,-0.07438598088222528
-75.68947695104352,-85.36294728384264,155.86417517114825,-1.207451048471641,2.306209954770657,-5.95046832266467,48.8459941647517,2.3882786908986082,12.776857513377742,0.4051694104319645,0.46331999455683326,0.4023395157379388,0.8308917103840994,0.06283475131128191,0.02541145503404746,-0.08868076493869936,-0.19748369036621594
-121.9603365885584,-167.13057799228872,119.06875969940012,1.3352917735264365,3.4139009670040092,-12.623186049553999,48.88785015307431,2.3507709911599215,14.567922547107834,0.6664112880575236,0.45678018794702585,0.19340398165766987,0.7597057491021608,-0.05920289379729607,-0.022454310699693142,0.10026347743342057,0.19052529170305005
154.69115484332633,73.59250373189519,-0.24654669075184188,1.6555427419275306,-1.1880817886037347,-11.968975184332923,48.88667675873892,2.3335319782737827,3.392663917094949,0.22816485290998184,0.3377546080654893,0.5646499042644915,0.2880397141920765,0.0912124080146896,-0.048790735792110185,-0.07359634013692395,0.10962658251010782
110.92333664319011,-2.8380034490898254,72.67440760355203,1.7371346938135108,-5.604933933417437,-10.628732105524637,48.89618052198709,2.3779359047965474,4.435843149064992,0.478376444852765,0.49366646711598944,0.8216975338476871,0.496381277024975,-0.14747535327306593,-0.18433021429968816,0.048707766933567764,-0.19943983173056049
48.025352343752445,-146.07249609437076,24.09478278468643,-4.764252345133122,-4.670299383384168,-13.244456990454058,48.88942308668532,2.311209021423064,19.653759706733098,0.5034897681151197,0.3773900938546357,0.25600116737124873,0.5658754979977183,-0.09322854263536087,0.041557699005027315,0.13537380935399607,0.13074102848787023
133.72581246757835,-118.19016247374316,31.659205819775224,-0.01999350117078419,-3.2029367155780903,-11.573884351127116,48.81762997015143,2.3473780180873067,6.614754476319253,0.8573060566106052,0.7755020348610362,0.5423763492338718,0.3786674268817498,0.06314164739084677,-0.17784945195176458,-0.10711840778784337,-0.12811431369830395
109.32194768368123,-143.08756627944814,-60.84861500251034,-0.5903455001482081,-3.8819906377503717,-6.391801423257936,48.8003570274493,2.3548772489093404,10.060767738582701,0.29537457744054696,0.3649606411476194,0.7512823862878388,0.31850586158257443,0.1246493139976112,-0.16464025954756437,-0.0271165542139781,0.1712799706478832
-112.8347788010271,40.53341097931553,-13.649542335037154,-4.596547248244367,0.7962911281936986,-7.845783055479688,48.86162526892361,2.377512498828321,9.130902468089955,0.7336310262502922,0.5352336931898504,0.0,0.547485886765332,0.10653334796978281,-0.17906658645320495,-0.0058107181731893165,-0.12004932936971052
141.321239456392,-146.08426909950225,-151.87628491569208,0.047951300166595365,5.814347534173354,-11.062220584555906,48.87024443668399,2.3370244624065855,9.808821404131338,0.6646823781751727,0.28674114648672777,0.29897059844279583,0.6320267976739122,-0.02034126394428787,-0.08635459924349434,-0.049607736248303225,-0.11491181763460885
14.163207089634255,91.54163989267778,-51.35447100074671,-0.751281652310284,2.387329722076763,-7.391513264242425,48.8131212150001,2.385496398721055,8.138561872310593,0.4488429943981179,0.4601084695583027,0.4991603616688035,0.5062019048163146,-0.07914982941024618,0.006764925033046959,0.14302570892129335,0.17433520319340073
110.67845585906252,-172.61606904465918,70.49826553037471,1.534577016353662,-3.3846925349722183,-3.5542757939662444,48.816683529919814,2.369767290994752,10.605302360659085,0.5819328812989354,0.29797430254671253,0.40821074557180687,0.46588410871431474,-0.032459072133436656,0.03815804127504757,-0.1672688003009426,-0.0035181519488841906
142.59286797245755,-90.22471632147884,163.15777098222708,0.2437412287194074,-2.083127296999666,-8.860664321414083,48.89630765633887,2.3771075360927227,5.936025914586848,0.45004103776434295,0.38604297114671826,0.37116973657207153,0.46317464499404987,-0.02193301078536386,-0.06188973488248625,0.18308735176808028,-0.16150174769863607
-65.518749010129,140.64000332108657,166.70308059468732,-1.6479615908497594,-1.4978720378964214,-5.538921621700203,48.89438332547452,2.396907764279134,8.881028988322333,0.50292056574097,0.6950467354191429,0.25214591967837496,0.27368967316128623,-0.15383636214786378,0.07814809781051235,0.16642839461094816,0.023493345878999733
-140.38130717003637,78.6712745240086,20.06023288496101,2.777287351370932,1.167642500979258,-7.2452335496088915,48.815697154869966,2.3844753586583964,0.14396883323935405,0.6506008158408929,0.4909450861445418,0.5157358071431167,0.6403795203966883,-0.11619083870352949,0.11246528956470125,-0.0535851973094614,0.04339398584583781
-97.943341484901,-153.73140014675243,38.38401065144956,-6.663700502325373,4.713764207556029,-10.683310905456949,48.824700840426665,2.334678836827095,9.418246907322343,1.0,0.6657162774690895,0.3185116724243556,0.5411067098304729,-0.11378261502849987,0.041115578304112305,0.1339553093174774,0.06993355210927943
-26.241196094547718,115.6053976146647,-113.1403732196517,-0.1927953852888305,-1.4022011383525619,-9.208106090857644,48.88921136620219,2.3645811060366295,11.674295075055433,0.6928336539808129,0.45783766072719345,0.24586138910689226,0.5250544188645124,-0.09152452157407298,-0.06337354400779241,-0.1599267376726949,-0.02566070355184849
114.48531573209755,-2.5073562455262675,70.31091891367106,-5.289752795975808,4.616331873204566,-8.22115259907671,48.843499333063335,2.386861159183813,14.796376299405985,0.5495055988000817,0.646957317874127,0.2580304584094205,0.5956568227439674,4.1987052158187765e-05,-0.18167474457395733,0.16416546218325123,0.10454302840605201
129.86300997228363,124.8418897807785,-154.56283463722096,-2.7365798136183597,6.311732875266685,-12.03490923101634,48.879807262586134,2.3525121584072504,15.738118563867488,0.7847396250606888,0.6636387501560479,0.7459090014614363,1.0,-0.10233353227253153,0.17459514564075412,0.09823680674763091,0.08596021465642012
-177.49723300877136,36.266318802141626,-77.51315311219997,1.5744411090280488,-1.0497205988661769,-17.6277459660326,48.83959860307593,2.3682799850121667,8.113525658782523,0.21589869838102965,0.6425390690015339,0.3365655123570417,0.8767147076508622,0.15292459803801067,0.19134266966536634,0.05914403709803795,-0.1969614341565664
3.869028927923665,65.45989153182913,60.610805022759195,-3.822592441322409,-1.1269338631839236,-12.30222668863712,48.87363829153081,2.3172261177950144,14.203018106596915,0.419087112274133,0.6901776583160879,0.5925485513549749,0.5901198052571783,0.16619100129727243,-0.160883783028323,-0.02335490675626875,-0.04152284286497285
-29.732038866439552,177.66056174245495,-68.28835264434386,-4.271153456111804,-1.0818581021733498,-16.274422845356213,48.83968258030534,2.3815914276701116,4.244371664792145,0.5134411334786652,0.5975851810930012,0.38180958574914636,0.3765061695405023,0.19461420989374567,-0.032668882641485764,-0.199816176740635,-0.05135320366330606
-100.04118823053712,-96.35920346735345,-162.05512531879646,7.145834950246873,0.18746995706365954,-12.05436027992377,48.88991790949245,2.3757460631301837,7.413241445343749,0.29228878561505767,0.4144211485585874,0.16749920482112746,0.6724861513837597,-0.13376226999866175,-0.11199689491754668,0.09650438090103386,0.18150265242383495
-136.84846775987418,44.62040691409982,119.47334736634696,-4.077867154260494,-1.0745372903454775,-14.922333638742357,48.83255726790386,2.388889387216613,18.104126600933387,0.3917927447649428,0.21678053750207837,0.3427672310547749,0.4555013505824538,0.08984903442657038,0.018272898224124562,0.10392173463166199,-0.1868679483409335
-58.45853829469394,-14.28429957933659,-68.2811974315573,4.95156270926392,2.6525323841679174,-7.159673887774895,48.852311813199414,2.3710148751885582,10.912096765711409,0.16880823234197284,0.34774598490390407,0.3833653541322629,0.5262609503941433,0.1522511947253095,-0.005191587418924726,0.04377661991626955,-0.09280837642934317
159.4474934085069,-165.7972969478311,-157.28211905087576,-0.5166064937377814,-4.646493841178346,-13.347792502201143,48.85217559077272,2.3876900593982358,11.164470370208315,0.2442500561215704,0.5783260447680506,0.5088462507993159,0.6697275841797063,-0.17461557651624454,-0.11423542472755353,-0.08027407995400462,-0.16144068911938395
-63.64694447252812,-174.7905690589686,-153.07626077896853,-1.574487364316926,-1.6038662858883357,-8.167675733140344,48.86488713786173,2.316221609674359,9.108084840365002,0.45099894023783105,0.7225227379951865,0.5267158677478205,0.6025675345156984,0.12877363770964229,0.16358086673058375,-0.16052066337503865,-0.19335081172669613
6.764623827611786,-137.0777119855709,-89.3668324360487,1.7003591717646143,0.9875240192167064,-7.500193810479582,48.830670004456316,2.38136473582257,19.343846954539732,0.311878430268318,0.5978444401998166,0.2537251075659772,0.538467593686073,0.03563599780159618,0.15722364502739372,-0.1839008977269304,0.037898025105006006
73.08682520226404,53.673026593877324,-115.91425900025055,4.009782226633497,2.610253521481535,-7.695473678929448,48.8642660507265,2.3952967257887106,12.654160618341125,0.584159051682847,0.4376760023229115,0.7707606085161867,0.6166077342346841,-0.07918782710633461,0.07840489512809828,-0.14847975958375398,0.08693782410735729
-49.09334314345418,24.178711648821206,98.74804240085433,-3.438203826324985,6.5858551910422225,-15.405008552193713,48.81410358195444,2.381550775382605,17.424936048815237,0.553550723512136,0.41476741360575187,0.7858990871056153,0.7188854122800046,0.03428391450667895,0.08778664730517949,-0.1401807677293111,-0.05547298000119644
169.84154977954586,19.234642018941884,-64.19374319986761,-1.5307493691855911,-3.867075682892823,-6.432066813793423,48.889361352331214,2.361522793174969,7.041314012732054,0.5714151810211031,0.5069536025503013,0.5089365303024588,0.2363743217223202,0.014958418321548178,-0.06043381897260797,-0.09013245397727171,0.1405003141121423
166.48102617916004,-168.53156548982636,109.69048261433971,2.540609204052757,-1.9561272425617682,-8.538984901845584,48.81441734875611,2.392650010389227,5.138808074860272,0.39911415381314747,0.6213914009684705,0.5617038290070566,0.6096783609286772,0.10341267870256526,-0.04507289085249627,0.10487367986045959,-0.18063059817540272
-89.3583735028689,-11.050921310397456,-117.41544078366499,0.8639829372810001,-6.799219719682011,-7.387202776392699,48.88402949347783,2.309448632659797,6.174007179423873,0.7164729315461128,0.5071511851717879,0.33206207860904685,0.3201247465038491,-0.11990653271210944,-0.004828193012177989,-0.07533569751910935,-0.007940325139157434
-0.990537878741236,152.86421442331027,-2.5634953641298353,3.305753491924148,-3.329607022058593,-4.310371192388947,48.86931480693838,2.3016864597397535,13.145299642885641,0.6001527043423832,0.40000477273064006,0.19039367279170838,0.588296295169185,-0.11588291493642858,0.05579561900779717,0.19955050289227294,0.13800199252390083
-71.68380846596293,-36.86692704816721,67.69336807912637,1.545335863295338,-5.306775890802127,-7.4170035886798,48.83410670725174,2.3965320215242594,18.23708631840003,0.5449051719996054,0.33017779272487335,0.4884839787388578,0.2641344767546754,-0.16578690830067191,-0.02625161662130257,-0.12614249834420632,0.12850237225163424
-77.45742202411166,44.972089123844285,54.71670739170776,5.4246720274474445,-1.563892185192986,-13.347957892848342,48.83274332379285,2.368300519308351,13.74973038165528,0.5465620046458461,0.35679113026008097,0.4199971861790089,0.5066703003628141,0.03400137024664343,-0.09132754126347634,0.14125035000195785,0.008866490085193857
-166.7206989523682,100.73472322433167,36.40658757489675,0.5357657965009508,-0.6850967779248935,-7.840149677453535,48.89660450740822,2.311416645769898,14.386327991737453,0.45849374474328497,0.3609772378783648,0.8193354226029634,0.5253282673814698,0.09039345679449023,0.14759160751735123,-0.10898388573211096,0.19247977829899748
39.443160232762864,102.21310049107956,152.93577669522114,0.6654334449928856,1.408362719512685,-14.310850681336905,48.819498386222364,2.3340012283534057,10.86442205868291,0.7637082928610548,0.487152737431601,0.9833488714647496,0.4816286698315397,-0.0016477100824172641,-0.0882584194877524,-0.07110885454203114,-0.18980076131135562
0.9644483623901294,6.940829662297688,-97.73094682557203,0.9651641160473963,-0.8957985909597652,-9.988896856513108,48.872295876543305,2.3748802083650555,3.6346107018233154,0.728332771848633,0.338172675371554,0.3324252982453752,0.6326089771186731,0.019251620104321743,0.04964104116181628,-0.10172912758557846,0.13197236918777633
-161.46764955000384,128.86270034484107,-2.261086393642074,-0.427466555179674,1.409811241236462,-11.309686399340487,48.818368230025634,2.3750387565560116,20.11638695627542,0.42693558256615627,0.38805597525016466,0.524955761939484,0.43673433668712613,-0.07966421178721857,0.08436022677326521,0.04556216235573296,0.15457764394981804
-79.68727287481988,-39.1038863890511,138.23731802606716,2.5442614764027733,0.3422225012818286,-9.769548378915447,48.890539752062054,2.3169991542084367,13.321652679620993,0.5329855640430113,0.6371367856879695,0.6694675458996776,0.4518851340934397,-0.019922188062734575,0.049369574148661194,0.10039054055141228,0.0003005733775064967
146.97571894799535,139.9295573225274,-151.95824438574346,0.7111236715890782,-3.09996961725055,-14.328626515364018,48.87419390049014,2.347014766641652,12.616936592292134,0.4206858949285379,0.6173844927531378,0.5900582995809833,0.4831852839951287,0.14580346476384576,0.10091701388844448,-0.1852433844086266,0.08511876544275665
-93.75771935988993,-93.51822009760369,-159.88022342889292,2.3645400274354316,-5.058821117522633,-13.983137229104678,48.89327046885139,2.3807311096939854,14.368957358485934,0.9931102921757697,0.8392736344087994,0.5797669665753764,0.3673408581026677,0.14405638590940617,-0.11937642734639527,-0.022417097646437567,0.04090228445703725
-127.83784604715969,-79.12209348339442,-96.01117647901509,2.8334995608724802,1.7510459996881975,-11.148057245057355,48.88791077126179,2.396679726460251,1.4303316443259355,0.4489556623408979,0.5681218285448328,0.7577215787393123,0.40960143566407325,0.1310975617964215,-0.042984164328077445,0.06637203360828886,-0.12055502154489939
-3.797006300077328,-160.87657528835962,47.88763903368667,1.2853640446809822,4.939508955043521,-10.467569322153928,48.85494988836329,2.362256558789398,7.494383758775409,0.7390580114801234,0.21854380318941435,0.7778378336920486,0.6444145940184778,-0.1507387686361933,0.02327530504169109,-0.14236469960160458,0.019196297669691276
174.83416347981625,106.40946115522183,-86.44333447806952,1.5051489727025902,7.606155035046048,-11.077385236644158,48.81522291092879,2.3638133347679613,13.109604422989962,1.0,0.1918595667853631,0.5694647888961042,0.6538197956135912,0.18927634755314465,0.1483547065646565,0.04557486829398191,-0.055634476293378754
-92.86010225585986,-29.860114956226,-111.51364182883238,-3.0309893627896014,2.8063641037038627,-5.4486425059423675,48.82214595140398,2.3469349298275284,9.275512755392171,0.5633888990538347,0.5253655289250382,0.9477629046544362,0.34310567479431375,-0.16685329551109002,0.1871817235233993,-0.059160708738693224,0.10363600406154394
61.96879706611628,-97.51801899189634,-14.831166471014853,-1.6510607634594638,4.372545635832187,-8.529073626627119,48.820181787385245,2.353905799455998,9.61736568980597,0.1516197141954066,0.4903597494874123,0.6715932560379883,0.6352505195314587,0.18791000433493438,0.1438435705378897,-0.1868828014904822,0.13964725600740813
94.18306151833832,-96.55550005803133,40.89530475698814,2.5301503589721945,1.3843791121168052,-8.611425620721855,48.82206394427248,2.3098933580609735,16.407144158242065,0.8020459940673239,0.4499845890110077,0.3573419455541553,0.20676124167385262,0.07586303145449314,-0.15004577022368554,0.18757918096718318,0.030611916283982715
-94.45048416273612,144.50397884252396,-90.51922547397345,4.27089354545554,0.9060281567706345,-10.946937024086042,48.8476414145081,2.334958808746516,10.586377688298535,0.39765144758626664,0.26385606437717957,0.6969546764005243,0.43596659408020766,0.1592082561578127,-0.1884821757283957,0.12470441948895178,-0.01858058397342796
82.15788550026946,120.20997616597327,-71.75117277945286,-5.821290676525081,0.33300307137458407,-13.975495519041505,48.88677934744794,2.3507293701016136,21.890409722036587,0.36259720222750613,0.30771969284178824,0.35686576445561347,0.2730960919406693,0.08807574050747258,-0.08693485842375633,-0.1754537383991186,0.07953313849454463
-47.59807222106883,19.271118728586003,40.881349732145,-1.7035894417542445,-0.31742893206259265,-9.81236235452292,48.80231146050716,2.327498123184138,9.796018146743794,0.85585480734009,0.7151082895770715,0.5290458044011693,0.5153740250201618,0.11417817305883732,-0.03710120148146262,-0.01351444632018417,-0.07226918462278614
47.63009901368861,41.79988814965958,160.46583191620294,0.07086180724395022,1.8212296662874046,-4.378190101550164,48.82384804065941,2.3359829031386328,14.024686403131795,0.23968059665612212,0.7040069918429306,0.6659156354884345,0.501408174803119,0.16504773947020362,-0.15000194586935672,0.12004383303277222,0.0051227998206758996
48.07069587392209,-9.242794601895241,62.90702187771177,-2.6378233862420335,-1.561791244094171,-9.12686111634754,48.859680298109964,2.3971196645475494,12.420196668179521,0.7869301353290914,0.5529498646097559,0.3744696578051422,0.780190787834292,0.16861001650439905,0.07179693519307723,0.1857638467826927,-0.15593825622948465
12.878886266913042,-39.00004456362882,101.84549169044158,-2.4675589325450487,-0.4423273547615759,-6.460422718294321,48.886532348125776,2.3005202448908673,7.128599565981653,0.45524024952428216,0.6246868003493877,0.6592764689556688,0.7633558889193368,-0.09524511990522103,0.16023308959150273,-0.018586610489521094,0.0873708000083609
-147.495682780413,149.5716772385993,-47.94836588803125,1.4247596213814144,-3.533898848893166,-6.081827338851428,48.82974803868239,2.3302643439765722,4.844782468339951,0.1294039227870442,0.2705750654689598,0.5459263897414872,0.4107864951425675,0.19986412636642004,-0.04026187782534443,0.16196294667716032,-0.1299734427968821
120.70889841212568,-134.77942673269126,-81.98843062159222,4.744127907514301,1.424780007194727,-8.121376223155963,48.83825271591868,2.358395401602047,10.185439948623035,0.6768078214708759,0.5633098873037194,0.2656758480153627,0.5095418875515072,0.03258174441093589,0.19563589937142473,0.06472067617670646,0.055657377151585585
-64.5191766101751,-29.35915570215795,-16.46361244705588,-6.095470668966422,-2.877292623439504,-9.139178084797894,48.83734254097145,2.3278966883792434,19.602510305660637,0.049667830437445604,0.3700702631975439,0.14314419705432113,0.32357084301449723,0.1641842499220511,-0.08314498822772017,-0.15292349192680246,0.1421141235092529
-112.85333625605247,-55.95771312436487,110.56781833620255,-0.5114284469450887,0.10123497144063814,-12.763194442129016,48.82936936629299,2.3676463854789644,8.031906141619263,0.4908280870256047,0.7489150714156572,0.15217954807300993,0.36905668409882797,-0.07508130346081195,-0.03835085402611385,0.1311550313140502,-0.1533379550814502
-165.320949040285,-0.6657407095866006,-15.7321289553999,1.3898410253711637,1.5014732809271414,-10.425341424634322,48.869876262750864,2.3299275080425765,12.59447528716576,0.17310704453248515,0.596739012779038,0.43519096310075844,0.1922268860094758,-0.051486639031679854,-0.17792206243375902,0.10644031675296822,0.14559020254115257
32.72145954776704,-15.252525163736976,124.82114716434995,2.340641916600725,1.75767429410944,-10.88268570856279,48.86558147224506,2.3638207703114102,8.714253186820326,0.43438665638320967,0.19045987399945857,0.3782223363784115,0.612877757971318,-0.10006394755166391,0.08444937664110236,-0.06825389874365437,0.09758796629827332
63.923170263221664,6.8002313943893,175.95791305024574,0.9573820292071153,2.3145256134463033,-8.81001332766156,48.88432750100101,2.384986259640054,11.107801608434993,0.6393996987473858,0.2556338870667333,0.8360192559062563,0.35343050484699523,0.15547529961133771,-0.19474818576647823,0.16644591687251314,-0.033935326117753795
-174.02838158597177,-129.62916819828212,-154.07040033707892,5.284207649808346,-0.6398745754441675,-14.042199822395556,48.89175773801692,2.365864394126694,15.710061541245707,0.5845222178685185,0.4836028475760498,0.46172463854329826,0.3506067927896916,0.06968540483564867,-0.02803298227259013,-0.11244622083986618,0.026601912238935876
4.353500987741143,4.730940544779742,-163.65234380986666,0.08671977997738212,1.4581913381690628,-11.411872086955361,48.89004757980921,2.3049884542616352,10.574873174652613,0.5415981064006751,0.31830064000718905,0.3713864866910448,0.4054452393893023,-0.17874712261980658,-0.10949934769389086,0.08114310976130695,-0.05816694288261953
-98.46152092874233,-92.72922700060408,-126.14770695118975,3.935978371176292,-1.4598757893366123,-8.587952329650777,48.85401608378787,2.379521336961486,6.923300859430633,0.7018497243196126,0.7232101859899387,0.538457510485614,0.40280776056387285,-0.07303431593581117,0.051984884963135414,0.09762853969986329,0.04852349229694314
52.26220454740195,-113.64071436425115,-41.62691673563535,-1.9391030110379073,-5.912621139030669,-11.906344458798012,48.818569746242446,2.321280137268677,18.030217819152085,0.4999922889986173,0.12912488195708943,0.5177992266831075,0.3210520049582791,-0.1582841151980212,-0.11413929063516548,-0.0812535442510971,-0.06669940983908204
-117.22808555820308,-156.65968123697115,-132.82480470764432,0.17394883976654937,1.5909278212246791,-12.546829261351103,48.8222162049539,2.3634791664483754,6.975427680296421,0.45672974006313427,0.4859719702384041,0.3861113907818272,0.6598903669437768,-0.04063360442786795,0.023613087072686556,-0.0649130497316763,-0.05832507799940087
68.73758571688774,94.55492115221074,133.43921194275214,-3.638145227396552,0.8954643205924255,-12.174245166441565,48.85902537984609,2.364673368208609,13.383656135062683,0.5570627229166009,0.1829445653400884,0.5065609100186886,0.5088703290226798,0.14589972458418332,-0.16682947811248636,0.16949563595323486,0.1398723863113815
-40.77527533180654,-26.120908491638403,-171.66734963025704,2.702593321646983,3.0399705086974076,-10.617228137297037,48.891839818498426,2.3803737104247613,2.5467046870633956,0.36768392223602975,0.4243679397170418,0.449489882876718,0.36397036801302796,-0.03198338736963299,-0.16879062998767186,0.031229325906943883,-0.17564634836574072
157.22279594522445,45.591725992232995,-66.3146221191039,-0.3613285879235292,-0.07586613861480389,-16.942074763297178,48.85304314355647,2.3505823120407454,16.423593455031266,0.6725637254356788,0.25187277032835387,0.4037341243269885,0.486011374789391,-0.18260008106750628,0.15443878453729815,-0.1368551795754271,-0.030533585030459998
-130.4924601074424,81.93360358970762,-113.50993338208607,1.0734631875596938,-4.809490097152235,-12.038477037983608,48.89357285447667,2.337596337449018,23.023274533577677,0.5141286547727771,0.4859807292960497,0.4012761077738974,0.46178623521158524,-0.07007939907131941,0.1137590006413211,-0.11883780305581207,0.09516432327709717
-57.21611362190694,64.55399951287927,155.35415885671165,-0.9401058938552213,-0.2748923530926676,-6.941740364969257,48.82622500179189,2.351802822177236,9.864897814929272,0.6431558748993665,0.31705410343882645,0.6068817201253296,0.4640297352537564,0.08682356771433908,0.18703797464024952,-0.15581397481674136,-0.15074005308640817
-139.14953235338794,-10.619741127714377,61.01316176041004,1.759285504977048,2.6597416942191843,-8.828364258780388,48.8086346777755,2.3545756932153368,4.869642766906173,0.46453680022452803,0.3614137502255048,0.3751321862942252,0.6169690090570952,-0.008796062516756159,-0.1089910548371126,-0.1610583828124954,0.0651799555629502
152.88970258028257,-40.35652957737727,148.33089232249483,1.1923019215672563,1.4281044263892815,-8.53988426530994,48.87962904060841,2.3821538144086065,13.837502782040298,0.5997963667931976,0.7127595129230293,0.20382514098062982,0.5748338667869562,0.09684850222031532,-0.08300073076103281,-0.003066126048086204,0.10536188869548535
135.8421672171532,-44.65443252936106,170.03833571174164,-2.983954289913619,-0.44023371868450734,-15.283073497741599,48.887938358193956,2.320507101115445,10.45424976747903,0.6330110148937169,0.41036680550639204,0.4730685873356183,0.8835948461039553,0.097852721058792,0.19929551312325783,0.07290889812980372,0.07601858240561554
-87.14101402254398,50.41756689482028,-1.0446322761470697,-2.8103022977490313,-4.990677683739549,-11.042596934167626,48.844808125658645,2.384683211500391,20.70736535797754,0.0961170326157319,0.0,0.48194791834980144,0.30495556398537826,0.1237198024380623,0.07200185274925569,0.17382104528366732,0.04671020011350441
57.59425657230446,-1.874032220925585,-95.64512110271055,-0.08330619102405533,-3.078050864711768,-10.14763715768381,48.81024442176779,2.3365707611109223,7.003941716174052,0.20777760154697972,0.4667263120210495,0.3588198085578688,0.8370487121198538,0.11951124404885288,-0.0793079345139196,-0.16528427991906436,0.12135314307172906
114.19999207243768,125.68760927586379,-110.25763696922786,1.978721872219972,1.431716585554104,-8.406915170561179,48.80423272945286,2.3743862312027395,3.3152374739878816,0.38834163554084666,0.7827967651487966,0.9883591242145227,0.5685733720343756,0.06921636405855558,-0.09690609987111279,-0.056575257948849184,0.06668586333636084
19.87229217580645,134.89271435761634,-99.7492097930974,5.588686659341542,-4.9954714562228375,-6.467433446313549,48.80625579155958,2.3335712584812858,11.518899166739327,0.47376387079675397,0.5719282023616835,0.6510005945265893,0.48234544586423295,0.034381951522134635,0.13657646831309428,-0.015156477312507383,0.1956772691728626
10.674208208162327,-118.59826391765336,75.09359074392106,0.908972569997187,-0.9547347442705061,-6.9358222525993645,48.84391144595831,2.370888534906128,12.916616204446688,0.7550693423115844,0.6847207354403089,0.4553247072185517,0.3183332106491115,-0.16554691940748142,-0.03994358636871151,0.06348038553509883,-0.15371627415148095
-92.9331752758374,-130.95588544353876,-165.43953787571974,3.0225942074656205,0.11526653692926592,-11.556124900918785,48.82348149909386,2.379917932039286,6.155120054553678,0.5907881014705213,0.37782041398039656,0.35325565995101216,0.3829848113802027,-0.12395950824341324,-0.18366278881467124,0.0474677730645742,0.09706589275105931
-146.4830035898763,46.94433337295982,-161.51001370822266,-4.838552804292506,3.449811467520184,-11.48744661367413,48.846192323650676,2.3558065469617815,14.802453198395447,0.6046594541951575,0.6273656547964025,0.23981932970713643,0.525598637376594,0.14279285797427155,-0.05505857669975964,-0.051867894924578994,-0.14942598714487876
142.99767286319764,-71.5587306975794,38.93145925793402,6.038867548301948,1.8434716533916242,-5.563952032816001,48.84884895024693,2.3619544622971422,10.279682510182989,0.8083435441175593,0.40833617057981736,0.2630083552841669,0.2847825273637389,0.13388996278891918,-0.1291041758157062,-0.06085427631304438,0.14962488164295895
144.15050057879898,-173.31454124456442,51.140572825466364,1.8170586333875782,2.8884336984718915,-10.880211746860832,48.84580928520754,2.3707760570881944,8.645887450892365,0.7752146059776467,0.5638755404216832,0.44138125508321113,0.4811230420255799,0.013524914922485115,-0.16255621769044418,0.08727728591862943,0.14017707848928435
47.91652461837646,139.91136097066385,59.4946527560856,-0.14881353347633922,0.905559972097828,-13.047784103261158,48.86199224069906,2.368842736160295,12.723618259650568,0.29829851232834104,0.7344624283722481,0.6657825556111528,0.8750335779894642,0.12214838680398776,0.15456918953298782,-0.1999530593609066,-0.18278980635772918
-57.94927522246776,-98.31572379222902,-46.123018348107166,-0.4940881423737762,-2.536232946634477,-10.42139557400913,48.86794037852756,2.3727415550314532,8.561990658677239,0.7465974596336032,0.28502108450154806,0.6715585886701195,0.5533713530432136,-0.08667059460632719,0.07791243965830702,0.021897422730370153,-0.08998531952892735
-54.28455313944208,154.5410346068913,110.14015993709512,-3.321599393576995,-1.8409814037256402,-5.751920632142545,48.83959453957896,2.3849675339772323,6.324973281495945,0.5209676436947549,0.14055802299627984,0.5616383910838796,0.5901522366643727,-0.19062601354164388,0.06830494928339031,0.040219183517798296,-0.1901923428002791
81.3440443932862,78.2764023161713,12.104851581582324,-2.463860387160513,-2.797978917723837,-12.51461353052031,48.833703171216804,2.3220516418200656,1.9305769891910867,0.3969474354273987,0.41581571473262374,0.6378697142840475,0.29453546919148266,-0.047557001397300486,0.0402489820676743,0.03337414008306,0.03159660606995329
142.95969358292774,94.55525636813434,-142.032373196609,5.731306896400242,1.7723425257786163,-11.086639579321083,48.83684012844368,2.3214731508310824,6.913855951202718,0.441306579175666,0.5658363051459285,0.5506750018305081,0.5972526293049503,0.14063243635404515,0.08766005929858245,-0.12639397682560005,0.12394521267842706
139.35111273544226,-107.47386151446224,106.95575054424427,-2.967013314858038,-2.081766656767673,-12.390532697427748,48.80701815300637,2.397068241608864,22.472989075335878,0.37490056899861063,0.8294389090235552,0.6160315192134378,0.18807891466549698,-0.18137500892048034,0.17904339844423306,-0.14026512370405286,-0.04791202055311866
100.75519650874458,-95.69000677794735,163.104403057365,-3.0248032735990353,-1.1820009390854496,-6.930817013822991,48.832163075289465,2.3851320656084436,10.179609878536306,0.5282343797510379,0.5175240271358083,0.48847011454564765,0.042932435289201765,-0.1584901869048294,-0.17291318770275896,0.0423960102408138,0.061804316705115714
51.131392615543604,7.656391376663663,-158.38692731915089,-2.1066614582267373,0.06747371456054495,-8.936437809651002,48.81999126461765,2.359170513535732,4.914390826914844,0.48340834612009703,0.6253047933461231,0.3523661182400225,0.5911661609935381,-0.056239125776715415,-0.1858491533576816,0.06861384760618372,0.03940394027355204
-149.70961260178242,-118.04405304604961,-39.11351806779123,-3.594542258883818,4.923937339743839,-7.022359266918555,48.82908401720636,2.3008178796592875,16.33410878968722,0.7471973977278068,0.36276608945723476,0.488161500555294,0.5263528593747403,-0.05983815126218903,0.02449909586241894,0.06869205603841488,-0.11859196889267808
-121.81366292593904,-70.04459063410837,-4.494223859490859,0.04591972453653016,1.9714017238296924,-5.104943355334026,48.87143971007075,2.385475823109294,9.765059250497576,0.8866013286970823,0.36836533759289714,0.3794728475729142,0.7765227389578815,0.010855660528754862,-0.037504364482248004,0.04400933828341036,-0.11399030220068154
143.47950786974855,-64.27350793879039,-127.2705263718059,3.2667315379957165,-2.3185602738033273,-14.336305336931819,48.898853843467606,2.375159657034372,11.460115179671508,0.41896428467153113,0.5693190035824623,0.5623111740685504,0.1431138912546399,0.006588377866960593,-0.1670328034642132,-0.1119228390796434,0.11585013755220758
38.31446147745237,-122.53322402900493,132.37522120183576,-1.8314769788161005,0.4555429716986794,-12.077454117078595,48.89235529670093,2.395637618289597,11.371637133081823,0.24084825960811496,0.817574702979625,0.2890997536603752,0.664168907098863,-0.18518331545657074,0.1823231931773705,-0.06888469471702274,-0.07880507981131389
-176.68906141801332,-106.13417997774214,-77.70612783958416,-4.119972839282465,4.953935281487514,-11.100565750378657,48.88216253145274,2.3013161824336583,17.426535087369388,0.6335672830638246,0.5048196270630375,0.5018827732816894,0.45457269334254286,0.017767249922867295,0.10642870761762663,-0.1612810942992088,0.07878730271008039
-143.47024456822845,103.87866312297234,101.88307437773761,0.8755839390439614,1.845537985286824,-9.59348492112816,48.873719706672716,2.3028525742836163,3.3566292928096617,0.6883569175814952,0.5531607972747665,0.8210616162179211,0.6406362674947071,-0.15302100017787215,-0.005478227853977169,0.15258380056365645,0.16748398459117414
58.860636878900095,-119.80949236298338,61.55801353019376,-0.1673230130394392,-4.794757078497181,-8.282307176602822,48.89449376492011,2.351745050992846,17.296851247631995,0.5760958370321781,0.36363559074712554,0.9050357357217816,0.215989980436242,0.08205596142576588,0.18201632380647065,0.18276319350793757,-0.006079490899333073
-178.17782981536126,-169.7553389361879,35.296496088128436,3.008173650244874,-2.745718285913293,-11.274360882652012,48.87520418458034,2.3856049209288614,13.725928417302606,0.19225613418284448,0.38713320131518775,0.6919665698059599,0.5936626828136247,0.17671827993688782,0.10789755081428554,-0.12976475184956032,-0.008275002164920109
-122.10910148970049,46.56777934641784,-110.82857446924041,-1.3635248979068113,-2.9758065075093607,-11.875824585864509,48.84709546704643,2.399131637749261,10.38654553123631,0.3415472022534026,0.7241913747331632,0.7476046420146091,0.1885553872652499,0.19853308417360765,-0.16930553995049835,-0.13750778495033328,0.1299739019126821
17.544164171971005,171.35392298128198,-100.54673260167395,-0.7804703388800255,4.322189476079905,-6.930021703334544,48.8601361925717,2.3320025228849586,5.730320609997953,0.5294427729753468,0.20890602695538535,0.32579617131200744,0.7756151813225245,-0.022625089902079065,0.06578475320012561,0.06703714621602541,0.01279075541049432
69.08227116936956,-60.763026735676306,-162.95457429123505,-0.44859109362980687,3.768843707590967,-8.161707439025127,48.83057849710904,2.303636368588751,8.765741922751523,0.37679253387421485,0.347527546567838,0.38482387254655964,0.3846220065917914,0.05921321462823925,-0.011211197349933949,0.08946760325792402,-0.11035298593126829
54.7060534209362,-137.28394684934918,-93.3435252783841,0.2670123316604463,-1.875110933356845,-8.852354655952292,48.800330833778695,2.3195508023056206,10.211792833486461,0.30045613037679664,0.4521565176404501,0.5831158087622109,0.4583506951883778,0.013586173015163905,0.03669879249750907,0.053394864161430244,-0.19110960530730933
-99.26304859419848,25.339437132311076,-55.64030059421492,-1.1776850320727696,-1.9397406594219881,-16.237276890343573,48.835361289433166,2.3877010369327207,19.0439501801946,0.9288858258219217,0.5217742759328953,0.8958537881238576,0.5714398613393137,-0.1291397972318528,-0.10374898308279185,0.13379344326015635,-0.19385267209941884
76.38451968511293,146.28751599443262,119.93230939047311,-1.6639323241380266,0.13407534798685078,-6.179970504592834,48.84048298516019,2.3466450378681905,17.175205203765827,0.30005483472046246,0.4820187917765921,0.8011715487887471,0.31807090918971537,-0.01038658728198033,-0.01324121632127459,-0.14845319704201654,-0.1955184393070428
-94.59032850115197,102.26224073825239,-48.09863998267008,-5.551133054645524,0.22400713828038005,-9.248092577042037,48.87330921575882,2.3853306956244134,8.061462007212707,0.7413082759508709,0.6581345534614811,0.3034502680832314,0.6474555914995771,0.17714770446471317,-0.06843945950512267,0.15271993672060996,-0.05875774847138612
-62.856108662663615,44.10571262857775,91.66384179561834,-1.6961616273603513,-2.886977787968992,-10.2859375518684,48.88592205040229,2.3443908291529856,20.046811663977365,0.5825378477926515,1.0,0.5411782645963666,0.7313789012433618,0.007219584851773375,-0.022674504595728895,0.12887392223060462,0.1406253120541442
88.73690584248868,-66.57966122126422,-21.80077873362447,2.145669804245256,-0.7473920246956293,-12.2579979250255,48.89626547178694,2.30533898131543,14.75472350548636,0.6216571508339162,0.2885959492425523,0.6770833235801181,0.18535267876243672,0.12110342560805143,-0.15843415443196798,-0.029116289915217475,0.09480131556422955
53.86784365699728,15.076862379439177,102.55259231779985,2.5507365581066574,-4.360809809559628,-11.69874315816705,48.835179175335625,2.361757523024434,12.356652835505317,0.7275771836140725,0.5545214355948996,0.7833953956329585,0.40753686017072155,0.03260192120967065,-0.14851520172189275,-0.06046446445556583,0.06969152403511686
125.72042777790404,-147.15185713046807,171.45777615733437,-1.4133390707739018,3.8169621147331076,-12.47274226867384,48.89573969363651,2.3435680496135363,8.59379021806757,0.3622224137295549,0.36564567721216457,0.45277940511646503,0.3819435444001771,-0.004562890262724828,-0.016658330254680692,0.03756813924454644,0.1694806336243368
56.74064122812362,64.42035274104117,-93.65703909927116,3.8984579945452857,-5.280991538495039,-15.792724624576529,48.879938555669355,2.349135319861806,7.1137655600080585,0.4400431991967715,0.6857548171802732,0.47633325226575396,0.2927982365397255,-0.1722948469136578,-0.10310064696250106,-0.001633429257382385,0.03831661172762674
24.59109720076978,81.03456680315429,130.44298030699542,-0.0861122151010644,-5.314318265678243,-12.252565402732564,48.80308443777357,2.394897074395257,12.713158515030099,0.5945212447083976,0.8682621598454923,0.5557101577242793,0.4882998411151811,0.17670433137126929,-0.09121424898398574,0.15266181504854237,0.04058666560748203
-146.2770835818867,167.41138424757077,43.856671070078875,-4.013539115447844,1.3051183635357906,-14.597113691249533,48.85952608470368,2.3457074988595634,11.918875601186025,0.13015102676028745,0.48883541171931705,0.2729254200993999,0.578296149457483,-0.1462897166110746,0.05845136328382483,-0.16975447230384347,0.009616771519613654
-47.62231089860393,-86.2569508517742,114.22593417191575,-4.957152169362767,-3.710628713502162,-9.981401903647022,48.83656417997751,2.3796527472422566,8.047218167302109,0.8299265737724218,0.7007341639094258,0.4813321805170792,0.33122937940633235,0.09094950020357867,-0.1947809302950769,0.018716432198688404,-0.1233104286392674
-84.52714763457884,-173.35568914451184,54.57092481640987,3.654773767859179,-1.5028948744036197,-13.252282601125755,48.803401120925486,2.3058912562015497,15.569888523272999,0.5231938769201538,0.3065372327831495,0.6294869669662563,0.8237314012722194,-0.08055599509919986,-0.016319031080694657,0.09720945589133706,0.18876280853723976
-92.16372838352991,16.41904719377422,-27.37817738130593,-1.1190111757832213,0.18951858330784854,-7.610197732665208,48.85315030828643,2.3479038951662425,10.817133623538613,0.311611543180858,0.7534389028207753,0.4299909047708418,0.49802460755119876,-0.07496300177305545,0.029144801898244005,-0.05964153033921207,0.18348174216261381
170.28379971088043,74.4445815828532,-97.89302180095547,-3.642193569217737,2.0259024896005107,-14.792962075555778,48.85848170808863,2.358669483425077,12.090152898526672,0.7187622828614159,0.8449783250195967,0.8559792246967459,0.5276459242868254,0.005919663548187071,-0.06131777787061851,0.03979917084701792,0.18624745725177216
-38.48481911996626,104.54669131787568,-154.7873188807806,-6.777828514306605,-0.663246353846623,-6.215765152406183,48.82522307548316,2.3113231092354267,15.36378666702454,0.5183228915600915,0.4738203314461915,0.6025901771917737,0.5390205848901757,-0.013915230839258136,0.012314947338268878,-0.11831474570006156,-0.16574008290996978
141.1367598637608,-110.25398411106818,12.786611205858122,-1.1871483326254288,5.337515391839382,-7.290155310171475,48.89398797509579,2.3302233319434267,14.132987467253502,0.3557041435728971,0.6341405409038613,0.22320658806514176,0.21742869520179392,-0.16558356801244545,0.13139095823275426,0.1109475277503435,-0.03042523064608718
47.20990535901464,-85.76896714667149,176.5173940296716,1.2142525769890837,-0.0013169659797278264,-12.998707158851035,48.861045423716966,2.3739593650286626,1.9012625481535306,0.6891659369035108,0.2506300251406561,0.38848289503749506,0.1845143832416622,-0.13484386135353849,-0.023107277362318795,-0.0920978626508115,-0.019220300607487084
106.13206927499346,4.5327330962266785,85.69504980511425,-2.0930734321386137,3.572384124776227,-10.082801443259312,48.81759636533705,2.3183906654723643,13.809719382800537,0.03489903828287905,0.375990094999699,0.11408699669783517,0.7413893395627416,0.17046769357880914,-0.00563222111276418,0.19189479599934817,-0.022365498116378335
0.9493535178691559,-60.98370841079934,-62.15560509635402,-3.1597354804016144,0.8356673410994806,-12.363133514585385,48.872125685903505,2.31284513724172,10.139933544090121,0.5839123989056101,0.608843852934857,0.46496743866136486,0.7615904896299445,-0.029297612869651685,0.14355609249052442,-0.16671127488551793,-0.17472280591259307
27.68539846548927,129.78413517148022,117.7937280312247,-1.6481273058201822,6.393629274021993,-8.064201963476963,48.84991395536342,2.329927551029357,7.764400078434781,0.7620547097377824,0.9746825618395207,0.31129358117137595,0.6924411660591689,-0.04637308220258379,-0.01679200312249013,-0.10649144329592408,-0.060712551064603826
-2.693630225209006,-9.44634465406071,96.83424006350634,3.729576057434567,3.1750905117725656,-4.400429530539473,48.84732340454204,2.3858961680801363,10.26058990131705,0.33340742188888606,0.13610813038628722,0.5094885041082882,0.4094318346389919,0.004083034440248878,0.17736044400081957,-0.1743781437400408,-0.03144166752238786
-109.71252439270398,107.84831187672108,-78.61111439275555,-4.1789448530255715,0.1304093264178397,-6.25680796667954,48.883453326278406,2.376294349968464,8.469236076020332,0.24363944397759008,0.5387729391092895,0.45663006380882853,0.3490101104875808,-0.10765849115420219,0.16023058367557685,0.19339465060847605,0.07859063618781204
80.08276149414189,29.02311377364734,-174.84930367407551,-1.9251030912675513,1.8864921507224428,-11.863184365842113,48.81381797984582,2.377680157781099,10.633800923834523,0.5846374089384995,0.7527098947126931,0.5801657243089593,0.3890913779587444,-0.1638136741635802,-0.18517388605946936,-0.1669797312948358,-0.04934150471384338
-78.9219495212919,98.31245098216033,-137.46145012777816,3.632273218852772,-0.7824475665927955,-9.456096155416912,48.84909867381722,2.3322457522572697,9.896175143748948,0.3646476730286433,0.8660251917678996,0.7835834710144056,0.0841011965492755,0.15885079255365714,-0.12731556937983818,-0.052606736236746166,-0.0010712012705468843
-171.24625208467663,-60.23772484908342,135.83022851234074,1.4825288682712605,-0.812699515065353,-5.23321302829133,48.878076305461626,2.3098939063885817,13.438288160003523,0.9496175421674586,0.45995029713741725,0.7576884000523552,0.43922416631338124,-0.14515258491718772,-0.0019365614645670548,-0.07757788989476247,0.1822797032928456
52.3700265265804,119.30998389491202,121.16269270975386,0.537383441336869,-3.910232484106756,-8.227187702784951,48.86603884388592,2.3031952747847266,2.3407490350562385,0.3939806854799217,0.7591316279523717,0.8272264889694061,0.47935015801165753,0.05317338419431855,-0.14645960135567404,-0.0849791309506768,0.17165545314024583
-116.24015541346239,-81.15396640163223,-73.72475968378953,-1.9453384062487462,-2.424784807401386,-6.769661810334206,48.800541365745254,2.358619842414255,10.918960418169943,0.4611212214691806,0.6480869005416553,0.47899358841869366,0.4686734851989335,0.07975882244448418,0.1499122102234578,0.18669632311137113,-0.10242559194250932
158.56509036704915,16.5955708811847,-77.32964653760865,0.09151444350128378,6.182914155467165,-7.846314344727707,48.878745059214424,2.3702285590219048,9.856843419497991,0.6042856575731994,0.8553589665023729,0.44100902231355377,0.3588655355731011,-0.19644560879595685,-0.022132183488637935,0.15006612724707902,0.18027368765178003
163.41428772093144,-102.95743925740528,105.4313953568896,-1.613487205359902,-3.6120941138357385,-9.571225281128738,48.89446719148358,2.337789113831965,21.25787878749098,0.1363351041807241,0.4604526105423715,0.34716975464174904,0.5433482649457723,0.09415847279351675,-0.13551306322377926,-0.06974184448661092,0.0012018208831310884
149.35118047936146,-8.810452214570404,157.58548916235196,-2.578158393212253,-1.966478138350916,-10.008396604245531,48.87046688348418,2.3528861767752742,0.21410784283268391,0.5119389089527304,0.51955778935036,0.37558410074961446,0.7045685962493418,0.19339060826962168,0.07133456341413213,0.06998992189359837,-0.007693201650604997
-46.74286790804001,-65.45692457686687,100.48941244713598,-3.2401724259052207,-0.28115603087730817,-13.432711706250661,48.887590092489454,2.3279003870758737,14.610237701963666,0.7238890812847398,0.3762043557857115,0.5845530952989801,0.2977983567159953,0.1392753639140072,0.08012626248779281,-0.14260700669003282,0.008919139658210506
-174.43561804960774,-83.98676497060288,38.00832373107414,2.3522867891174952,-0.18122788425771122,-12.097444099820844,48.83608117189611,2.3364302217970634,12.166854828885253,0.48377562342311653,0.44111301411429515,0.23949981933324388,0.3931837877904681,-0.040939769821219774,0.0044180940308962136,0.020433605961860918,0.03405059975503422
154.19468253158112,168.11460649009348,-92.63831388055037,-0.18121839664840675,1.1511774591928812,-12.505414940616728,48.83506031457915,2.372981613635775,13.831631296337644,0.2704152639362433,0.4399518541704277,0.42575025837110114,0.0,-0.19423690012398154,-0.14163737006572896,0.14585648603988116,-0.11036539661049859
-25.85370660576683,-122.37332202477697,9.269249074293839,0.9435412314080881,-1.407362124342189,-10.854039121833804,48.83208645300538,2.37182202206282,7.763444473049267,0.4131620445794334,0.33709861319909207,0.24601026271426357,0.7496911471908831,0.16385614120071762,0.125127168557696,0.17285976121552787,0.12914693516542086
167.99573485572103,103.43730148466227,-95.93573090642474,0.4550195574042111,1.3361291009890124,-9.50135593364392,48.8734969426951,2.3028091706064484,11.596803584603563,0.11703567734895842,0.859336280328214,0.5060640430574583,0.3885873902829978,0.13265729590386133,0.15626812280642216,-0.04130736506258867,-0.1492658767675702
166.90319175213102,174.2993854139574,110.88411123483849,1.3227564834250782,3.427156323440175,-10.123802301893914,48.89420659566545,2.3944231565630854,10.727117741923529,0.44182037344452807,0.5126625977570515,0.2951445583327652,0.5198448473125445,0.17582893947472122,0.16870536039462147,-0.1007847571301983,-0.024007994616773498
127.08340396824963,-172.83546585357198,-40.694011373614586,-0.7641563699576754,3.7998970319445005,-9.152408581044249,48.88854007713128,2.326901191639295,27.680240372467807,0.7220211457713269,0.4039447274987637,0.22375094981583904,0.39571379819117347,0.19373689290150015,-0.11410235860797045,-0.10927651059147601,-0.038634164452192726
-73.99839885494916,71.6498690551542,120.13099811784946,-1.4449723531637226,-0.8025354019105203,-7.80729438286011,48.81502139007231,2.3907586500274007,8.45367859495049,0.37513043588339195,0.41984859533859387,0.4751122860410334,0.5166959651032069,-0.10856869897150122,0.039556288073137436,0.05505847836389027,-0.11232872671746748
-41.3648177033069,-88.95174999973663,-42.6206815262189,-2.445840988173367,1.8340302867088938,-11.046757026370338,48.86261077349845,2.3511896834214983,6.074641175255273,0.6398353144288859,0.1905955734481003,0.19011076855739817,0.6072407979741482,-0.09042918166287235,0.08056654827726117,-0.044291341926289,-0.1865421318889554
126.4092017460685,-165.4243832418104,116.69378587196087,-4.241907400221341,-3.438400866423566,-7.5860100884724995,48.89959582795273,2.349918201607786,20.00528634297018,0.20353933285716896,0.6222770094692309,0.5513807028161332,0.366194235831086,-0.04510224705147117,-0.16886366025483635,-0.1071083408947302,-0.17936270761032258
-65.90807814374004,-34.9597515756129,-60.005586540512894,-3.3660995118687493,-2.165148135816991,-6.385499347530484,48.829536841744584,2.3450613163646232,11.719469868018244,0.8758781749038808,0.32722396461183795,0.3978631570839617,0.5904831328221762,-0.16581476217860072,0.023927576270171308,0.04644979448307557,0.03710017644807545
-118.9826111930067,156.67841166151499,-21.552226337638842,-1.0962531633006647,-3.521200196071627,-8.554554303016907,48.86347847930149,2.3922427390131955,12.569967987301176,0.7262636188062551,0.37743022880227495,0.5203548448440508,0.14478772946304053,0.18533028456691047,-0.18077175342734095,0.05221302159116531,0.17111747087071544
20.448454485006067,-175.76456602788085,41.57583096335671,-4.809118453306435,-0.1372340662789524,-11.43358321187101,48.89066238302153,2.3208107984413284,15.634720511499806,0.4015657897844168,0.7274924425797632,0.12661374723912622,0.6435536061788973,0.09859794720369902,0.12128535690775794,-0.17156882822457376,-0.12850635291504453
157.01571869788114,31.638849094721394,-154.69645894922928,-4.1468577124080905,-2.577657829079833,-6.959966335581177,48.889954814011084,2.361164517213444,10.38385775429926,0.23538935328941057,0.3926958585516478,0.7665274413585295,0.32576019732957284,-0.18153536830099581,0.15332013984607984,0.19069518657395823,-0.12492579257715929
70.5707268029903,0.5027322943167576,161.35454225356722,3.1264196779055324,-4.562080676414384,-8.35205566932727,48.832147528222656,2.3317781607424757,7.90442311540466,0.3983723990717209,0.5919612877890031,0.2678233092060269,0.6133610284738683,0.07261989680389003,0.053041541153474536,-0.018877949601990712,-0.0610991340640597
25.222021232171386,134.4182991735771,26.49808300456914,0.6725384545613773,-1.1580156677434517,-7.943527126247734,48.80939249149319,2.3915238619625967,10.662241593975695,0.5563957286555679,0.3897508131647815,0.8578071330405888,0.5963235024021987,-0.14602881869736348,0.17094869214100267,0.12166412210828265,-0.13164567866898827
-145.01646224252332,-149.75938277257475,2.8152052886888157,-1.355510184610562,-5.185751327342857,-5.194485518140713,48.86460089590709,2.3169340543457753,5.795792679555406,0.7172018086353679,0.3981778823066597,0.4133217417478081,1.0,0.11382370670995873,-0.09109737572678728,-0.06530021723551474,-0.02312879137803242
41.4026016117011,65.34937075919413,122.18182960316835,6.8147233767136814,3.9815793109384265,-7.67167194959593,48.89469674980768,2.367618977242526,2.7379186821872263,0.07795062194422103,0.3741061666556932,0.7602944308217394,0.6778848639362391,0.06354680855760536,0.0830820261343091,0.07824134973914254,-0.16944031710560356
176.41938603753476,64.83949143597982,131.67458276285794,-4.944749156139086,-1.6725691837298213,-5.077186839530826,48.85079837278591,2.3421758439076688,5.784988823023722,0.7410980475508113,0.4634717913725611,0.6907822986986033,0.7421559522156531,0.022379554050204614,-0.12912912562700857,-0.06267444860067611,0.15319854932505045
-129.56975451485135,60.868806070421954,8.013745630445754,2.9268338293854654,2.9559482209143866,-10.245491600683895,48.845770739463504,2.366122286571107,-1.8091650221906264,0.5513732502105031,0.22221500665675104,0.40983320458033745,0.5553534582822862,-0.06592022805143954,-0.17355933448362248,-0.12106789517659973,-0.19298491762907963
6.59867485094523,159.24041817661333,153.81443728570946,-0.3343982483382481,-1.4762024701049155,-11.094286141580032,48.88639484072973,2.3157607517154584,8.178245804260499,0.2673149185667383,0.6524914093561386,0.6381612897889277,0.5316435102384277,0.0800692832262016,-0.03017995058364925,0.002905637054292587,0.10190654269883714
135.85430589406394,116.31151044247696,-156.69440421246696,2.3551410687384355,-3.584813477851802,-6.353212792330459,48.84245966790742,2.3393659085869527,7.500479336203338,0.0,1.0,0.4360125845265901,0.11864129401453055,-0.08481220918285555,0.18002734999634135,-0.16630779864394452,0.05082120972011661
86.67670239151357,-164.88981855233783,-139.2387147895617,0.32686115181242126,3.526571914067757,-12.757238214667678,48.868092870433294,2.3107262516488305,13.018263779530287,0.527494966175405,0.6190644631638713,0.45376648942770265,0.7776099525575597,-0.19124945774615695,0.13087145596836053,0.014296563830625303,-0.11561226279350097
70.92566675829647,-10.41017374637525,34.84376280519845,-5.616735186735773,0.2661107493232153,-4.1347718290863495,48.83886423577382,2.3968776982292384,10.645518023292365,0.5439781020955808,0.315483067884036,0.6485351609920526,0.8903772670299395,0.1661982882259902,0.08025401796180698,-0.13238202518280517,0.1753176580741746
72.89427023535933,-36.73689976751996,-52.53628975430988,0.2863814026764854,5.660727857736889,-5.894277857459756,48.837713749287325,2.3213992404173203,9.304078973670364,0.3767368175368937,0.6351431375498111,0.18898887227104894,0.49764518392828616,-0.15549792528292128,0.06658261905053575,-0.18522495657333035,0.02502531724412202
-50.583185560888126,-68.34700040731126,-12.878940171888416,1.006667563918794,-1.3995687786996458,-9.537154935140121,48.818780756534146,2.399322612623327,15.887865876961435,0.682417696979996,0.19124691203975952,0.3818053624475293,0.3599358131601059,0.11264642562290539,-0.09658669911249125,0.10532524724485726,0.14040420939032594
-74.30693606478239,-17.518778944524968,-61.89148155702004,-6.575955895573242,-1.3347908986992985,-6.19617909588807,48.80884516703028,2.341849815765665,7.914314276719731,0.9067844231763754,0.3462940796364936,0.5915826197107839,0.38092850846355486,-0.051505352117166725,-0.1877515466401318,0.04220660232369394,-0.09278607592827673
111.37001597226492,-41.690093426648104,-34.298887879823184,5.832144881405695,3.0143725266573274,-7.813000015268292,48.888516067591404,2.3071549126877198,4.450989680461904,0.4201044786201098,0.41238796098438707,0.6817058578787103,0.46176267006447164,-0.017828639573141125,-0.01742240170290424,0.07347543333700102,-0.015125982333434068
111.64082208450509,-24.35979604368049,116.15268497266783,0.9336227825183163,3.035257951497135,-13.670095357751633,48.818121982423605,2.301757518256292,-2.637755155642264,0.35066863056096076,0.7090334675362521,0.5343905260459604,0.34073786972105957,-0.09878373519706268,-0.07680880733970513,0.1939101438047151,0.04251117364856144
132.14603468883735,172.53427161911128,33.65143194754967,2.0159632204094864,0.4602911595439549,-12.248873475606283,48.80622184021861,2.3598956372010216,10.123589770959404,0.8433627869539351,0.6396418037948199,0.3651345281281454,0.5501008691847752,-0.1450600267461455,-0.05619403122016098,0.028412345096875125,0.0830067633830533
148.76659892032967,-148.09212909015093,179.04403774205934,-3.496588168728935,10.005804569424432,-8.942758211551682,48.85823081089533,2.361472965631187,9.734841305561392,0.4558617317575888,0.2144678989692826,0.5950138654931434,0.6896792026413828,-0.18079513227999633,-0.1712325765783093,-0.08049931410392226,-0.12596440675616094
4.083263589937616,152.00311314194272,103.27651121554663,2.0718525664368546,-0.841682376961054,-9.321369257662578,48.854599674830816,2.352479316419697,16.34540564737268,0.6318622095277691,0.6628626425796882,0.4337533887103102,0.47289368200777365,-0.19352905310248836,-0.09508296178800846,-0.167443898739189,0.18203985749316748
0.5458660873918575,-7.114783150430384,-81.48014852334241,3.2685133786891676,-3.8083897109070524,-5.875614221439438,48.856775670330585,2.306639917520354,5.662033253552677,0.3785503380364099,0.3889339166196752,0.9405992086389816,0.5922024782019564,0.032074431851637636,0.03166373404391737,-0.011456095029453772,0.07791121183499167
107.38626442803906,44.547208379834814,-84.83575761838937,0.7607046844135376,-3.007665121742146,-8.893827478017577,48.84681048881005,2.3331504368674194,13.750198746553856,0.7280606628475956,0.6216298425845995,0.5365771426580926,0.6936273464152686,0.15855274041389927,0.16216215559641445,-0.19409802737567483,0.17972176025021908
53.987015079995444,118.86586798236976,-59.07662275787743,-0.028114675562293537,-0.8242184680776803,-13.606154145705169,48.81419363522181,2.335907080634026,-2.4150883516742443,0.25110174571809285,0.34816767255465586,0.1698387529518226,0.4246830994948139,-0.1090498673279977,0.12736999070016408,-0.12457307039108363,-0.1217456722289863
72.70807581277322,-50.233309506268,123.57341303318736,-2.6807643746952494,4.556325016474952,-11.435982937178684,48.80209148330995,2.37048167327258,3.5042010771929544,0.529015224734563,0.47882258365842917,0.4025816511434236,0.8253778746593264,-0.16897423723357252,-0.08096273135652488,0.030349715408326677,0.009892867006151246
106.4853609969964,-25.048113088331917,-170.1764457657964,-0.6486207533499775,-0.5590315864400406,-7.570808782193596,48.80464139272244,2.341885472519974,11.917728821982283,0.5591904200407882,0.3350081763173498,0.3203786766904191,0.8862753244518745,0.011886498796149336,0.10885426310624119,0.1490210193076824,0.044611119755654155
140.40192305432385,-32.57334709966298,-97.13473960634722,-1.5360885427778408,4.698156295098414,-15.267846782980238,48.89431471458354,2.357296711018345,13.446685331178925,0.4634882332147273,0.4794616029932318,0.22242163890725358,0.7652586970880857,-0.0006030313160646783,0.07493243269480854,0.1581005087719014,-0.1712835904835126
-58.321743533447105,-45.096831887126456,145.77063132393613,1.7159869121780527,1.3032753461343745,-14.034076681074332,48.85318542587262,2.328633034184354,1.7029655819273906,0.37273172698773926,0.2627155392221678,0.26176666497499335,0.550404254934958,0.09321776280121058,-0.14258050725094915,0.06573342461780352,-0.05473921605362961
-44.79013704962014,153.19055579288215,50.36271698997072,-2.549627775352208,3.250107889081549,-10.917964539388342,48.839972093548326,2.3725981735481314,6.026976497726521,0.858589057472786,0.32931794111360047,0.46540530054616147,0.2968096597220179,-0.12123645791690225,0.03505458136910039,0.042097360126272354,0.19187826584950435
-146.16650165728714,118.41476082948435,-98.33504561961969,1.693952164510672,1.161505879880413,-7.0198541688914045,48.84108318161568,2.3046765914898764,10.22537130684286,0.6617726756343507,0.3728579618539525,0.33330292307187903,0.613704219464588,0.1447742324764888,0.11682073796378817,0.007015003730975605,0.07839981836501336
28.180850758622626,-140.7600036493286,-101.10781143627108,-2.5169566881889693,1.1377440198658115,-10.450244275202925,48.86521953481916,2.3988504256861125,9.524324366651541,0.32697158648211416,0.305919439210676,0.5542952144398747,0.5777954745450372,-0.1730509515947278,-0.14530452388610718,-0.04336444083983215,-0.09627739601925961
-167.06078143317285,-141.0755931082454,130.542516633395,-0.7870576624800552,2.258131803318225,-8.417202093593279,48.83766627775942,2.3641492587629704,12.73774559946196,0.12323003638658736,0.4242161193178282,0.5549331919170098,0.8669809433597113,0.008547589227664437,-0.17452685247740496,0.03448670702379228,-0.11005636977757627
-12.384713472314331,-25.96697465292317,141.75270297973674,1.84813319103845,-1.7001254462572364,-9.78555514846443,48.87964590664844,2.3148861176168736,14.567016989793917,0.7957034455352492,0.5167570005332695,0.45584540790125816,0.4295176989638011,0.057636713102710124,-0.17356142849814843,-0.024584055192370474,-0.12855065196682863
15.352068494727575,-144.48334437618874,-87.7928072536385,-2.1113901599581317,-1.667140633642463,-10.22255626413176,48.825994291726865,2.371749081705996,3.6087088915233405,0.31478107117300186,0.7653430150273979,0.492822520336682,0.3525935279899289,-0.10595418688665724,0.008629607805686751,0.13135920973945753,-0.17721079775031567
-76.84514923381761,42.873514297603066,-28.616271092448386,1.9516094669328057,1.0486409584937837,-11.761359691138049,48.836725912948154,2.3786557166796407,12.2198662594834,0.5123605451251015,0.27610733252185504,0.8623158368642787,0.8642309448781924,-0.17894123516631663,-0.18660167949441406,-0.11368562910666738,-0.1641126068733955
32.699973804843864,-128.27102138577578,120.45446590619417,1.6589824730141045,5.823334426518068,-7.2805231060582,48.893499681569075,2.378859599405093,6.401908808316705,0.518373079367185,0.29247293607037805,0.8015965081058924,0.4539562353625632,-0.16391618323912205,-0.009481213349872647,-0.05863919639378082,0.0032619284641215995
-169.0199100219422,8.054375028048383,97.56267789955876,-0.8128520201308307,-4.62225967580094,-13.562803651227295,48.826028367419795,2.3270732159011143,11.677761422105341,0.5571804814499847,0.5066903260579545,0.5364398994087863,0.5041940919977401,0.15205641347544857,0.011434466723063391,-0.05136427190544973,-0.07589978912931437
-166.5546520502828,-177.4008190786616,113.00979836379042,3.485349604067368,-6.087556858320082,-10.500971253229615,48.866158589737765,2.3958637713788398,7.666110899021746,0.16232433676468572,0.1728681813635924,0.5384083408527263,0.37198316317300517,-0.1997143377803873,-0.11850848635419667,0.05997520616133134,0.08938723365618367
116.13620183747696,-66.02531457144718,6.623348683668752,0.23335302593134294,-0.7912315086858386,-6.361611985919822,48.836456727612315,2.301773788078006,15.383655422442368,0.4301790327724824,0.5488679386964829,0.6024490480639795,0.5388477240789923,-0.09219080017034803,0.18799303173874887,0.146150173332883,0.12046953145288541
-50.33136909194536,63.788660522155965,148.15765738986232,3.30682957975605,3.092541241481234,-12.092737692419325,48.847119711405156,2.3379839447070245,12.93388891491942,0.49684743345315113,0.503102958192278,0.5789323759394454,0.5003964657004099,0.19170751280955756,0.09832922050503734,0.006290673162124449,-0.01990539866030336
-134.25821544532147,-5.74598151797457,-62.6574441764033,5.380394774631536,0.1541282570405435,-14.469012049877012,48.804518828604806,2.3104218170172475,5.055727350852301,0.4889004403512912,0.6089748657323553,0.5835622023189176,0.4984954192118497,-0.048328650912806775,-0.04197084233751966,0.16733017839733694,0.08440937857603753
8.007573619729584,172.1770149596357,-123.59803163489352,-0.7239030651039342,-3.507989540445135,-16.150482670360546,48.81672338900068,2.3384859406066507,1.6067810694804887,0.6429637657871946,0.9475099772092856,0.1875421087919502,0.5290259296402764,-0.15150025069509332,0.14683305820069004,-0.19912570670150798,-0.15154669782552788
97.19767911549991,134.67736658383586,75.14363972335133,1.9348649520821897,0.2372804905991639,-7.801176182143924,48.81019127841586,2.3057224997134282,15.94707235974248,0.5329930024594326,0.511708005004097,0.5105367479865033,0.5069546206866359,-0.17730584052201986,-0.022156664661304365,0.1855826165820872,-0.12108574290230495
-102.30443010113646,-50.73451954446557,14.167589762482692,-1.9127037759686267,-5.1989196386494765,-7.599153164631668,48.8844715147731,2.3644979729460665,6.470186467380307,0.5890480334833501,0.39193557886798536,0.6488981233556304,0.2505198805174148,0.17489831119052746,0.08805841602159492,0.19755735197939034,0.0019685090642415637
44.240571294840095,-163.62484506998115,127.65087677141315,-3.0984432285245944,1.8867511826225254,-10.83269066186584,48.89616912582225,2.3062461156835425,6.991003030842643,0.380261064527628,0.6924494060280136,0.4577059555149084,0.7302234810784946,0.1520685136160369,0.039123409117165664,-0.15745737529738135,-0.04939295038468283
-149.27491260224352,124.42546804140676,-150.78267031510262,-0.5863789721592852,-0.9273240493592747,-13.613085067731113,48.806797461431294,2.361584679231056,13.710012279729249,0.8414174001478654,0.4975440793782706,0.32763634606178893,0.6712368275321021,-0.16602903706800293,-0.015113048551703756,0.048910213655271706,0.18977182185497282
-161.39458037930123,148.04435171328169,123.72926523770406,-4.087800839248389,-0.24609749863629027,-10.238291117842701,48.80768457701942,2.3234084258903827,4.883693929341604,0.44213191427671855,0.4672080033896028,0.4769958225523705,0.6145427308996025,0.03496402590122552,-0.09499860168018977,-0.16257304206621456,0.07513671885089168
11.287667364533291,115.42586163085326,-74.41392484482401,-2.8128233389419295,1.281556411533427,-6.265716594917013,48.855216894198655,2.3179147875592467,10.995657958164607,0.5658545892843422,0.8574452065730511,0.5134986457472638,0.35692318281147556,0.048468884493919534,-0.19235114005041454,-0.09519771081095191,0.09856371135453346
14.628643779638338,-133.93802126888465,55.74804018054587,1.7742977979632035,0.6170667521283275,-13.607890748877079,48.85040349247756,2.3347000863925476,10.092257122809194,0.5228497396003611,0.6501343437202654,0.221231019750455,0.7237298247622094,0.08024165280575701,-0.18732328086569083,-0.17092947105057266,-0.0022674290535534547
49.47476453935437,179.24944838842356,-165.55363593182793,-1.5409470463465154,-1.6237787211933337,-6.6254767409829345,48.86505721327794,2.3640961028871152,9.591963643486142,0.5902030592477945,0.30968381420754443,0.3900907587090302,0.48614199587270157,-0.14384662831097886,0.05732691228002601,0.13727428831048993,0.1333754249622809
81.39288014015818,-86.90968024100142,39.449266669296264,2.1315422613655843,3.1008385129394123,-14.885687019858526,48.87368058354965,2.3578200488323175,15.976616057674619,0.7400974938900086,0.3156465519676207,0.6433999360611693,0.4190835212716177,-0.12889653940728066,0.1481800107991263,0.11779260672615294,-0.12593422430162265
171.30674860651249,80.71376861101322,78.21780810744093,0.8982358140524616,2.3907976939171602,-13.210950980114443,48.87972194656894,2.3680471595663306,12.330331808867541,0.3318256132853523,0.2329348994880276,0.5799461669845488,0.46354060240172035,0.1758496648823581,0.13285763583131044,-0.07363535985379369,-0.04978886058639498
5.868125388430315,146.89255548085976,-47.24992277797671,5.553462186057345,-5.322852576672794,-9.472168970748436,48.8149083380245,2.391898097989108,14.895426411972501,0.6651325072222616,0.2799186549490389,0.5568269300450936,0.4710004326279252,0.05323995505138435,0.019107398332858516,0.03338324086682812,0.05837462096933066
-63.735669741151455,-95.1526388409446,-102.45214610562951,1.5730118567281375,-0.6907280144177957,-6.957042398854688,48.80378357292375,2.32033031785131,8.751008684584765,0.6474435771967798,0.7256685369923006,0.8068417853571439,0.2658557170084759,-0.0591244549606707,-0.18431284040283435,-0.14855902720381403,0.00023362917210309475
106.26703011673334,146.97307968374378,13.547043577276213,3.342654210837943,-3.2408603810888317,-5.385071890840661,48.88891588726642,2.3413357112809208,6.379592658372754,0.5346719706364993,0.3983552071657825,0.530142470568731,0.6549321168864811,0.14149937971602716,-0.1740553242835203,-0.09040966971021827,0.060130000834470176
-82.50038954565328,-68.58663148984789,119.94868959683276,1.2056539893826392,-3.8041742975862674,-6.824730443559517,48.84695408937137,2.3265820616404262,15.194436016237214,0.5453550894839345,0.14285609376673203,0.5290874804077963,0.5325088380640349,0.010689573286803478,-0.12745198881939107,0.07680597593075161,-0.11831981177061741
-21.970288545971016,171.50876005826024,-63.5229510132057,0.9341805032342179,1.6054008705348572,-5.143205256935404,48.8971244326521,2.358634799458152,7.146797835606358,0.2688790434491936,0.5915208049227109,0.734131061160558,0.6743861013165083,-0.1558643516977047,-0.11314168924307882,-0.18157026764453932,-0.19515217270880894
-151.75570271678424,-78.74639266302914,-89.11105289233936,3.4941991263399452,-1.2577838419957212,-9.253818536211188,48.85327694852023,2.328340079368207,10.618126372011638,0.43206802822980583,0.5338600992701101,0.49718688026558927,0.38575345772155456,0.10475033017722934,-0.04776491093453322,-0.07076917809919911,0.07038778931877476
-170.8737323704353,163.23689691282067,-79.58328889043244,2.006392397595794,-0.42831494683923027,-11.664763800962067,48.85100273755007,2.355801670219542,12.117667343161576,0.11855160377086826,0.41032361798963685,0.5979525914791511,0.5811207352544039,0.1369209055482563,-0.11961921624101422,-0.09769032784935794,0.03224212168049512
166.55342928405304,-160.72392567863704,161.68757504999917,0.6301908388722843,-2.009054801331181,-6.247740892628055,48.86229793589128,2.382316380191046,6.151891237149334,0.4387715301927698,0.3726797991967683,0.13832835859723425,0.48189036393616824,-0.18077133565660775,-0.07895751911198445,0.04876774592837005,0.08160830027987609
120.9528433843941,75.3379242011327,-50.66031032475851,0.6169639977891532,1.110526358459483,-5.709487940907376,48.817014398154235,2.355094545743144,6.167594103693498,0.4873471488561024,0.5035365293906711,0.6021588016494063,0.41553516179934735,-0.15377799574272608,-0.17478255214408459,0.03844500714650537,0.055267025210878784
70.55071419373127,11.560008181321336,-178.70247364021662,1.614687935491248,2.0350406559570944,-7.007530820727232,48.82540405050386,2.38381291353779,8.642017008026626,0.22023302637079378,0.514654028770784,0.43049113202129663,0.5700927319226169,-0.10986677665241668,-0.03580721707033163,0.08666898021894298,0.05883427956224596
-32.77694001086283,-7.964252235816957,101.40523486546311,-2.014120558379655,6.510764588928975,-7.962317948677698,48.89058064597237,2.3611350203291925,13.720190075095129,0.5598218770364038,0.5803228488435687,0.48380573446507824,0.6371095018593343,-0.1421315424707725,0.011352315397315765,0.19749606887135784,0.09908825339372329
-117.61404477449551,-99.54204686789761,71.73892632074046,-2.141398398416095,-0.5429227934944545,-5.624085029464393,48.82123277499888,2.3870299834800073,11.730404924691559,0.7414335684955623,0.15023784805872142,0.7960001895115305,0.3790886971222628,0.08253330347794668,0.08945680242585297,0.17057879706728218,-0.16974333641263784
-123.68266463840902,74.0144843195371,-133.7154247429312,4.276217797118797,-4.345252424326535,-8.774086534620663,48.823297083198334,2.393041708852991,3.233331948636601,0.5430886622602462,0.2803193794354423,0.5757819434924862,0.8156026970476045,-0.163623279675128,-0.17290748410952614,-0.043825931728054573,0.001613631649939773
-89.91255666074568,-111.30858307932944,174.56552968856852,5.593240991579993,-1.511681071294554,-9.861593647427616,48.850998416268084,2.350781286958466,19.763894247747405,0.49890360101831377,0.4104513813399487,0.5804917717711151,0.4504355097614498,-0.16178110723065942,0.1690873412338994,-0.09957577009294859,0.1340013720827657
17.721599294203372,19.023046554516554,38.90242270984004,-2.7866473752304977,2.5411797641449696,-7.62343560200353,48.86411513535561,2.37906460025708,11.900124350919882,0.39491799948149703,0.23322731563197935,0.4036454056394964,0.9373049588577091,0.19850743134858123,-0.022367902423254066,0.11726909451305145,0.1323032551369932
77.25453217202244,-88.8316693055097,0.2806167386165441,-2.006983297319113,-2.3179355703909246,-8.367260985795294,48.80009038666147,2.3468815445321622,7.881695620380103,0.574315505297688,0.5954579251841906,0.46224206068833273,0.3505708500220225,0.01772390760553119,-0.034263391478943916,0.06645002832889035,-0.10665670611212562
57.671055618383264,164.02369672128822,-42.40106365575923,3.427568458512434,-4.446382798364942,-7.144126634995775,48.8456781190591,2.370519377819258,9.237216470656467,0.29675034750050794,0.6350304518814867,0.7720679306134062,0.4320972227651994,-0.04497664223342679,0.18366955955503694,-0.10014448440054885,-0.05471087488814283
-79.22379709946058,-169.69277021916497,143.52219200290966,1.6005599794271896,-2.2554530588642105,-10.195808992319515,48.83990131255607,2.3037507866168965,8.789284793246289,0.017645682344227587,0.37867186814480736,0.5879065818260334,0.08324538034686613,-0.06430295503749361,0.009785504632881498,-0.12072380800207046,0.172396107447997
163.7515010387499,-108.09781915995484,-92.17314668931722,2.0292843159627663,-1.600097753247943,-7.072249057505296,48.88656191925432,2.396691244948085,8.139261877250979,0.8159175836444386,0.6326424529414314,0.8328815389275153,0.49921486871311277,-0.016657690915251988,-0.09571437028923975,-0.11341094407809615,0.11590035824219258
85.64289001047666,-92.76818170051882,-77.12319592083533,2.689803884559171,-3.2480086438939693,-7.227150603571216,48.88396974670366,2.389433346044189,15.82874847203956,0.6921441652690552,0.545374249675513,0.3261906805710704,0.7414285284145175,-0.0954382461736194,-0.18929009422527115,0.13093729291297312,-0.18429144798086022
19.567458904104257,-30.935582723586094,-135.9321095928359,-0.7221964852322268,0.6524295423493127,-9.159952171965811,48.890592345200865,2.389328736285463,21.88217334557019,0.28015469038341106,0.5465949639671844,0.19799754997569552,0.2981366084370187,0.17192494258111113,0.1503461744883251,0.10576660354417405,-0.11367649763930775
40.2194686443668,-96.21711292678073,93.28287441033359,0.9899097749705594,-0.23706684362015956,-12.050903933137155,48.8842050610487,2.3281251288377454,7.4359994872858115,0.21078045008986585,0.0,0.45388339439651865,0.6289643040016886,0.17381786593094284,0.10519171044807302,-0.11035887228071593,0.03642659690386693
-28.94397752599562,-3.1143275032373197,34.397740946107206,0.7565764520942763,2.3691157224563906,-6.078127044227166,48.87867113636572,2.328316724409888,7.712039945467598,0.5212764528483399,0.46102375124319267,0.6939840079422515,0.3688595286693581,0.18564169725264718,0.05875915385786212,0.03684453912974961,-0.012886645317280399
-90.81684377958331,134.08758837307403,39.26382093161939,-2.5754748007363815,-1.3375795047767678,-13.428972383025288,48.885900496079074,2.3402600755204754,9.549179187109917,0.5128827719075557,0.38028494040349725,0.5486183512041127,0.562398523442482,0.1653128259971396,-0.0221252935409344,0.0032158592981972323,-0.12617690208218324
-51.84983568554583,76.34283170730146,-101.3506448329931,0.9452728296471116,1.6741943057055053,-12.673117318352135,48.81748065244338,2.3880189542806716,3.1172556724167304,0.6632392088090621,0.4717264585211995,0.24985727756399428,0.673850305954623,0.17332416715304388,0.11612978554389469,-0.06003670436773101,-0.061629436280104505
92.82459976717286,28.786312992639978,54.42062008575019,3.713132088449004,-1.4768123820709975,-9.29593145711784,48.83408490916843,2.3858639136641817,12.639723067077192,0.4330023470924742,0.41488915870471993,0.4028374671971175,0.9459877438814432,-0.02147296699010437,-0.09133833570766617,-0.043690268974258595,-0.1659667450579395
-174.8183440932879,-147.95885592623534,95.56504100887105,-1.0023997165300842,-3.388837085426208,-17.32369850211702,48.868361832496994,2.3289459971393165,10.93410954876778,0.730990690003499,0.2602413600600162,0.6201844159498752,0.7440670609712056,-0.0886058676817108,-0.11216950145173099,0.08559684284132874,-0.03848060695601299
-138.21384941751015,69.83715902013921,-51.16012893875185,0.4577077462228024,-1.6290574057377984,-5.1711219974795055,48.89231309585678,2.354177616891426,10.747748695349593,0.4566706036913815,0.433062523394258,0.6957573193365474,0.4397383944687562,-0.05803959303274714,0.17213481314932338,-0.040814386206838416,0.07352308307939981
-163.439048872169,-120.09085764806164,108.4849718262164,0.6201267480325681,-4.854801567150892,-9.755923281641728,48.86669087660239,2.3475170146679547,0.7350667529867945,0.7426013559224988,0.4170624933395067,0.35933130345460806,0.1916772231007416,0.10454929635956883,-0.1721038432745995,0.13682319975704532,-0.05622651631907938
-165.33763116517076,103.09225894621125,-54.43538812847247,-0.853993651305812,5.364646919948936,-5.181550272120273,48.8207948904411,2.3650675185065646,-1.309719417845649,0.46371123523892493,0.6803851445925958,0.7619798914882023,0.6003514559654564,-0.14569443576121902,0.1629276580145405,0.12307656217069857,-0.1116345903824171
127.96581024396261,-89.97956693634485,92.92984614334358,2.0307037130830734,0.4274992433580066,-4.3878992013208045,48.89446650638195,2.3213899909681066,8.16190801093109,0.32715594514192303,0.47187107484538127,0.6394796295929126,0.78791732116024,-0.19817724666201322,-0.10854856152149268,-0.12817882773471967,0.006849469115067647
73.31682937680853,-29.862457804475667,-167.85716131522116,-2.0401968937649624,-2.386220670991389,-10.264494024190114,48.87603418039333,2.3085050632136834,13.3077064800656,0.42511258496514753,0.38574789145072774,0.3614077157999525,0.5105227730152679,0.08374189361067252,0.17720742610599033,0.08937837046460995,0.08075971262682025
-9.297421528562921,-53.83072716554595,18.419256530514957,3.997936556087802,-1.132932486846181,-5.753746837548549,48.87165437561544,2.3027255122397303,1.10968283241308,0.6308480077514392,0.2506444283143141,0.8713521515761444,0.4145962987518018,0.005647729352890485,-0.04645229344400556,0.14050054155457964,0.18510015932824098
-144.77970216563946,129.17300928294844,169.02956183035917,1.8786166848967363,-7.351391949720208,-12.980334281570743,48.87625066173111,2.3381417314627146,14.476567226451934,0.5707673467171069,1.0,0.3920417690733518,0.6609962738841431,0.09568431068614541,-0.0463587081557415,0.12102240148642252,-0.05714085074760353
-3.0182849579403523,-134.4439948631731,173.24805624566068,-2.810305802018684,4.303059675215453,-8.50010863335881,48.86591446908495,2.3946611826880013,8.483289130278411,0.5105056404259083,0.6989805872532644,0.428585759701971,0.46788386837213114,0.05345338993874693,-0.18136993911496974,-0.17919464874088087,-0.08488184762267843
-9.550162518996359,23.63215765852391,-78.56907179697338,5.09402905465876,4.009644132642701,-11.220168949215264,48.80221125837611,2.3684814310319924,5.855464873626769,0.2912396927389489,0.5329676214782273,0.6709061558334904,0.4450736943874297,-0.13678169216262917,0.13005966261315977,-0.18237397612678743,-0.044204551742977605
-117.64732683239453,-128.8578206004976,-21.096327211072037,0.5043043837847863,0.32262571248028954,-7.710542294609158,48.82536182596393,2.3749130170755133,10.416303391018962,0.488000568243068,0.21620492671816344,0.44600331435097595,0.5632192287122818,0.0607609285638247,0.14653690276425352,0.0015191808549139263,0.18114825108923954
-23.813406274329708,73.72650100758719,-157.3279531248121,-2.168842551705155,0.9583868881902193,-7.152279478774651,48.895657183995965,2.3945163626559696,3.5118576405209083,0.369423561591799,0.19640309840219017,0.8075280649976067,0.6506088684934936,0.1899180063562954,0.0850559527597266,0.151382647766168,-0.05506073828621191
-36.53829561694556,145.82812600601324,134.40287073765592,3.3136635749735737,-3.8030303307769806,-10.27972370374294,48.82886042800899,2.342205153560902,-2.6915279424084595,0.36423950559022544,0.8342074059210917,0.7258319669547516,0.2853423655230258,0.03487826631423796,0.09468794223030391,-0.08938500338072318,0.08716970856127354
41.70603529879793,-23.54124460778877,24.68597513047709,1.4840145583440751,-3.5849096857815517,-8.16553598264061,48.877162648448866,2.3474367926666164,16.03153868309609,0.6990611766598964,0.8222562596824239,0.5812326614407394,0.15060260897361522,-0.11779512598799942,-0.07670408018153343,-0.14359178162924838,0.12608066265012124
48.63371431235177,-4.2867863046086825,-41.36375558141387,-5.315879112702115,-5.091888447563196,-6.965881091323393,48.84244839704091,2.3359541099281316,9.75645969419269,0.3467293482326989,0.5549928932995035,0.6679372812989455,0.26224944040867587,-0.1276223290773234,0.06891197590479203,-0.1964070636047892,-0.08200737735202086
-163.69055648206398,153.87222113379443,-139.40259894390488,-1.576980951731561,-0.48320425732077266,-9.236539594151154,48.89075277158512,2.318137266234513,6.392961565539746,0.3353702997393051,0.3380257231975616,0.40010849697368434,0.33785299461840385,-0.12523586393993436,-0.19448589049947704,0.17918511612252552,-0.08230715097036674
-45.13945873447037,7.556899913768575,160.83622277888009,0.837292011664631,3.183106214597797,-2.182879044359157,48.85576690545767,2.3766393944112534,7.110440077763226,0.5628156745165467,0.39022270340997844,0.4284415056478713,0.8905459474510999,0.08138284856838507,0.09084943722615718,-0.082323135465625,-0.1502609598270438
45.30956965712511,-4.464562302158072,10.87885721555773,-6.478700032927977,-1.1496438861070357,-10.211415872319629,48.86318859968546,2.3906685792931017,6.125094133356925,0.31675935344715034,0.3262099694197901,0.22762016583672007,0.40772137768411315,0.12611994358728063,0.1670224866352214,0.03667153362571557,-0.07823370293757415
1.1290530888315686,28.198476973549504,-78.1459455301546,0.255210256162182,1.043087490532851,-4.832431165189005,48.82396251675021,2.381387556738431,8.235936548916076,0.38915742395674124,0.91558043138987,0.5749228514887222,0.603940854956697,-0.1372250908847228,-0.10501220152588081,0.1100864233144545,-0.08737874991359318
128.33634282779605,68.12270509066269,-53.922553152656576,0.4739381181157797,2.936501684680698,-6.363826200003407,48.80575234064431,2.3047720161162037,9.437929601505571,0.8851098196583415,0.45917834387542333,0.9345530173689226,0.3862969684102798,0.1924334314591818,-0.17094867021220284,-0.02066811217795772,-0.0038921366871577656
57.129707382820214,-141.5219849686687,-82.54901486802683,-3.5504756471274677,-4.8723020339341145,-15.379686335034346,48.87565562934849,2.3299144743572904,13.437812741594595,0.4665394172415801,0.6623961709107533,0.383798526715338,0.36412120601042547,0.06561771799636296,0.0821889016668706,0.09297837829049144,0.11433363805638458
-121.34360625068531,115.59978998694578,36.65153118851305,0.8119346587798906,5.536696276137828,-5.32107977621273,48.80676432894973,2.3592085583832687,6.521299777009804,0.6351686385685331,0.6906491432591312,0.12388027487722914,0.7174576583208505,-0.04964604052288735,0.1735646710773484,-0.007809803145656741,-0.069483747234201
-154.59525093584526,-23.218190116826662,154.7868872809836,0.02239151737510061,3.4719611622938022,-6.578165021063758,48.87217981913191,2.3327185091828464,4.7130315232030835,1.0,0.24304995794453388,0.6447185587988644,0.13976166725517059,-0.07971162057259923,0.15626228574281725,0.05127691976668336,0.1959362362077412
51.27094015427363,-153.95453643690522,128.4097691975632,-3.573882317655044,1.5416781532812784,-9.45756224368016,48.85554928619618,2.3150118881423976,7.31974361403954,0.5398988942309321,0.5157864282286799,0.565343182149354,0.761978888988854,0.09917925502868741,0.1718354058636848,0.11588695262851106,-0.035928284332491345
-170.45592820501614,103.02576091135671,-14.262884846648092,2.7586816405884758,2.772283591608218,-8.69337953177752,48.882002371295684,2.3538363097457675,22.319913972574362,0.6049472765878107,0.44379154792232256,0.6096075300545379,0.49902377303625706,0.009403511929754194,0.06677846325999187,0.13245555771173217,-0.008423416657015015
30.879209258446792,-44.29801019294206,117.53977042836283,2.513561384303415,2.913228909825209,-8.3216272148383,48.82057730894741,2.3521492172617835,10.78384579338005,0.5625150294274724,0.7575914040174443,0.4305493505496705,0.5217927335542605,-0.05782671545307436,-0.04195055322937424,0.009981489330317256,0.13575781657201008
158.48288691298472,-143.86770176578057,-27.682026740521252,-0.8692112605570839,0.8779196597694368,-5.674074069788559,48.85415296219335,2.3709894299219054,11.998388808151079,0.43493717387972086,0.6206478551233798,0.1519110974035915,0.7165337669102028,-0.15202174860613932,-0.02554340996339316,-0.13249256873396678,0.10811603559434507
27.17070403531642,48.1604542355702,-89.16942932689031,-0.5957439701754713,4.2848338586777075,-11.039229602575237,48.861417138735064,2.3999867200502876,8.72625134049666,0.5251791412464026,0.4891808447843919,0.31175730591681416,0.7837257639152843,0.04365028520486153,0.16725944868823872,-0.007297883812823258,0.12653808396595007
-40.2588265656521,136.84728723611101,174.02944149591406,2.178791812786036,-1.3579810458523611,-5.041992736961057,48.80742977933268,2.364823843204724,18.666524770646575,0.4642623497718108,0.5294898253768131,0.11401094067817352,0.32241864816882826,-0.005180700550215522,0.06738708675663041,0.06182453162075274,0.19950979933414864
51.58375863924715,139.59126338903508,-70.60047553050414,-0.6019894293354197,1.385433615586195,-13.05217620951867,48.87389406838753,2.3316885552878386,14.29850785404343,0.3178188787781189,0.3628240392263443,0.6838939523228991,0.195042822143482,0.08669200634382135,0.04601553615657292,0.17456030940451844,0.14737569551910235
-15.028959423054005,164.75885093123037,-63.459276844712974,-5.792724601560463,3.9649284037501795,-15.080400404500166,48.83890294352145,2.395638115723233,4.796569173903613,0.6666192789588221,0.31016753765142546,0.6134207939225873,0.16883249425439417,0.19322772724250087,0.06496655632177928,0.12428027214698045,-0.1541285925174353
16.42204415373658,132.37396551600767,176.289432403148,1.460809672199782,-8.073599268177633,-8.01954253470109,48.812891408937915,2.3571300476159935,10.788098426743469,0.13811542368879676,0.3487077198839042,0.44067238034266176,0.5039178086225408,-0.01996717593613115,0.13564581105911605,0.08902195836884086,0.14019489192319162
158.92733115954906,-179.22926903562893,-131.78610246036425,-2.4397779622155253,1.3138900379224727,-6.022921426171851,48.83870649332905,2.3645736112926583,8.065282813516573,0.5015299492412114,0.5990540813131141,0.2798777701760866,0.31498653782037644,0.18876941531958957,-0.17808672854080815,-0.07620739058963251,-0.05320218675868002
